{
  "resourceType": "Bundle",
  "id": "27700024-070c-4141-8109-9d9fa34dd24b",
  "meta": {
    "versionId": "1",
    "lastUpdated": "2019-03-28T00:00:00Z"
  },
  "identifier": {
    "system": "urn:ietf:rfc:3986",
    "value": "urn:uuid:0c4151bd-1cbf-4d64-b04d-cd9187a4c6e0"
  },
  "type": "document",
  "entry": [
    {
      "fullUrl": "https://ncdhc.health.gov.au/fhir/v1.0.0/Composition/27700024-070c-4141-8109-9d9fa34dd24b",
      "resource": {
        "resourceType": "Composition",
        "id": "27700024-070c-4141-8109-9d9fa34dd24b",
        "meta": {
          "versionId": "1",
          "lastUpdated": "2019-03-28T00:00:00Z",
          "profile": "http://hl7.org.au/fhir/ch/v1/StructureDefinition/ncdhc-composition-birth"
        },
        "text": {
          "status": "generated",
          "div": "<div xmlns=\"http://www.w3.org/1999/xhtml\"><p><b>Generated Narrative with Details</b></p><p><b>id</b>: 180f219f-97a8-486d-99d9-ed631fe4fc57</p><p><b>meta</b>: </p><p><b>status</b>: final</p><p><b>type</b>: Newborn Delivery <span>(Details : {LOINC code '11503-0' = 'Medical records')</span></p><p><b>title</b>: Newborn Delivery</p><p><b>confidentiality</b>: N</p></div>"
        },
        "status": "final",
        "type": {
          "coding": [
            {
              "system": "http://hl7.org.au/fhir/ch/v1/CodeSystem/ncdhc-document-type",
              "code": "NBDEL"
            }
          ],
          "text": "Newborn Delivery Health Interaction"
        },
        "subject": {
          "reference": "Patient/dd78393f-37ca-4738-81d6-d9595b2e5d0f",
          "display": "Baby of Eve Bill"
        },
        "date": "2018-12-24T12:30:02Z",
        "author": [
          {
            "reference": "Practitioner/3db74777-fd3d-4d3b-92ec-d405977a11a5",
            "display": "Dr. Adam Dev"
          }
        ],
        "title": "Newborn Delivery Health Interaction",
        "confidentiality": "N",
        "attester": [
          {
            "mode": "professional",
            "time": "2018-12-24T12:30:02Z",
            "party": {
              "reference": "Organization/od78393f-37ca-4738-81d6-d9595b2e5d0f"
            }
          }
        ],
        "section": [
          {
            "title": "Estimated gestation",
            "code": {
              "coding": [
                {
                  "system": "http://loinc.org",
                  "code": "72147-2"
                }
              ]
            },
            "text": {
              "status": "additional",
              "div": "<div xmlns=\"http://www.w3.org/1999/xhtml\">Gestational age in weeks and days (usually equivalent to length of pregnancy).</div>"
            },
            "entry": [
              {
                "reference": "Observation/741a72a8-df75-4484-ac89-ac4923f03b42"
              }
            ]
          },
          {
            "title": "Abnormalities noted at birth",
            "code": {
              "coding": [
                {
                  "system": "http://loinc.org",
                  "code": "73780-9"
                }
              ]
            },
            "text": {
              "status": "additional",
              "div": "<div xmlns=\"http://www.w3.org/1999/xhtml\">Physical problems identified with the baby at, or shortly after birth. E.g. cleft lip/palate, extensive bruising, cephalohematoma etc.</div>"
            },
            "entry": [
              {
                "reference": "Observation/841a72a8-df75-4484-ac89-ac4923f03b42"
              }
            ]
          },
          {
            "title": "Labour and delivery",
            "code": {
              "coding": [
                {
                  "system": "http://loinc.org",
                  "code": "LA20786-2"
                }
              ]
            },
            "text": {
              "status": "additional",
              "div": "<div xmlns=\"http://www.w3.org/1999/xhtml\">Details on Type of Birth and Labour Induced</div>"
            },
            "entry": [
              {
                "reference": "Observation/641a72a8-df75-4484-ac89-ac4923f03b42"
              },
              {
                "reference": "Observation/641a72a8-df75-4484-ac89-ac4923f03b41"
              }
            ]
          }
        ]
      }
    },
    {
      "fullUrl": "https://ncdhc.health.gov.au/fhir/v1.0.0/Patient/dd78393f-37ca-4738-81d6-d9595b2e5d0f",
      "resource": {
        "resourceType": "Patient",
        "text": {
          "status": "generated",
          "div": "<div xmlns=\"http://www.w3.org/1999/xhtml\">\n\t\t\t\t\t\t\n<h1>Baby of Eve Bill</h1>\n\t\t\t\t\t\n</div>"
        },
        "id": "dd78393f-37ca-4738-81d6-d9595b2e5d0f",
        "meta": {
          "versionId": "1",
          "lastUpdated": "2018-12-27T16:13:03Z",
          "profile": "http://hl7.org.au/fhir/ch/v1/StructureDefinition/ncdhc-patient"
        },
        "extension": [
          {
            "url": "http://hl7.org/fhir/StructureDefinition/birthPlace",
            "valueAddress": {
              "text": "Blacktown Hospital"
            }
          }
        ],
        "identifier": [
          {
            "type": {
              "coding": [
                {
                  "system": "http://hl7.org/fhir/v2/0203",
                  "code": "NI",
                  "display": "National unique individual identifier"
                }
              ],
              "text": "IHI"
            },
            "system": "http://ns.electronichealth.net.au/id/hi/ihi/1.0",
            "value": "8003608000024083"
          },
          {
            "type": {
              "coding": [
                {
                  "system": "http://hl7.org/fhir/v2/0203",
                  "code": "MR",
                  "display": "Medical Record Number"
                }
              ],
              "text": "Medical Record Number"
            },
            "system": "http://ns.electronichealth.net.au/id/hpio-scoped/medicalrecord/1.0",
            "value": "8003620000000000",
            "assigner": {
              "display": "Blacktown Hospital"
            }
          }
        ],
        "active": true,
        "name": [
          {
            "text": "Baby of Eve Bill",
            "family": "Bill",
            "given": [
              "Baby of Eve"
            ]
          }
        ],
        "gender": "female",
        "birthDate": "2018-12-24",
        "_birthDate": {
          "extension": [
            {
              "url": "http://hl7.org/fhir/StructureDefinition/patient-birthTime",
              "valueDateTime": "2018-12-24T14:35:45-05:00"
            }
          ]
        },
        "address": [
          {
            "text": "home",
            "line": [
              "31 Pacquola Street"
            ],
            "city": "Blacktown",
            "state": "NSW",
            "postalCode": "2148",
            "country": "Australia"
          }
        ],
        "contact": [
          {
            "relationship": [
              {
                "coding": [
                  {
                    "system": "http://hl7.org/fhir/v3/RoleCode",
                    "code": "MTH",
                    "display": "mother"
                  }
                ],
                "text": "Mother"
              }
            ],
            "name": {
              "text": "Eve Bill",
              "family": "Bill",
              "given": [
                "Eve"
              ]
            }
          },
          {
            "relationship": [
              {
                "coding": [
                  {
                    "system": "http://hl7.org/fhir/v3/RoleCode",
                    "code": "FTH",
                    "display": "father"
                  }
                ],
                "text": "Father"
              }
            ],
            "name": {
              "text": "Simmons Bill",
              "family": "Bill",
              "given": [
                "Simmons"
              ]
            }
          }
        ]
      }
    },
    {
      "fullUrl": "https://ncdhc.health.gov.au/fhir/v1.0.0/Organization/od78393f-37ca-4738-81d6-d9595b2e5d0f",
      "resource": {
        "resourceType": "Organization",
        "id": "od78393f-37ca-4738-81d6-d9595b2e5d0f",
        "text": {
          "status": "generated",
          "div": "<div xmlns=\"http://www.w3.org/1999/xhtml\"><p><b>Generated Narrative with Details</b></p><p><b>id</b>: od78393f-37ca-4738-81d6-d9595b2e5d0f</p><p><b>identifier</b>: ABN = 51824753556</p><p><b>type</b>: Healthcare Provider <span style=\"background: LightGoldenRodYellow\">(Details : {http://hl7.org/fhir/organization-type code 'prov' = 'Healthcare Provider', given as 'Healthcare Provider'})</span></p><p><b>name</b>: Blacktown Hospital</p><p><b>telecom</b>: enquiries@blacktownhospital.com.au(WORK)</p></div>"
        },
        "identifier": [
          {
            "type": {
              "text": "ABN"
            },
            "system": "http://hl7.org.au/id/abn",
            "value": "51824753556"
          }
        ],
        "type": [
          {
            "coding": [
              {
                "system": "http://hl7.org/fhir/organization-type",
                "code": "prov",
                "display": "Healthcare Provider"
              }
            ]
          }
        ],
        "name": "Blacktown Hospital",
        "telecom": [
          {
            "system": "email",
            "value": "enquiries@blacktownhospital.com.au",
            "use": "work"
          }
        ]
      }
    },
    {
      "fullUrl": "https://ncdhc.health.gov.au/fhir/v1.0.0/Practitioner/3db74777-fd3d-4d3b-92ec-d405977a11a5",
      "resource": {
        "resourceType": "Practitioner",
        "id": "3db74777-fd3d-4d3b-92ec-d405977a11a5",
        "meta": {
          "versionId": "1",
          "lastUpdated": "2018-12-27T16:13:03Z"
        },
        "text": {
          "status": "generated",
          "div": "<div xmlns=\"http://www.w3.org/1999/xhtml\">\n\t\t\t\t\t\t\n<p>Dr Adam Dev</p>\n\t\t\t\t\t\n</div>"
        },
        "identifier": [
          {
            "type": {
              "coding": [
                {
                  "system": "http://hl7.org/fhir/v2/0203",
                  "code": "NPI",
                  "display": "National provider identifier"
                }
              ],
              "text": "HPI-I"
            },
            "system": "http://ns.electronichealth.net.au/id/hi/hpii/1.0",
            "value": "8003610833334085"
          }
        ],
        "active": true,
        "name": [
          {
            "family": "Dev",
            "given": [
              "Adam"
            ],
            "prefix": [
              "Dr"
            ]
          }
        ],
        "qualification": [
          {
            "identifier": [
              {
                "type": {
                  "coding": [
                    {
                      "system": "http://hl7.org.au/fhir/v2/0203",
                      "code": "AHPRA",
                      "display": "Australian Health Practitioner Regulation Agency Registration Number"
                    }
                  ],
                  "text": "AHPRA registration number"
                },
                "system": "http://hl7.org.au/id/ahpra-registration-number",
                "value": "MED0000932850"
              }
            ],
            "code": {
              "coding": [
                {
                  "system": "http://www.abs.gov.au/ausstats/abs@.nsf/mf/1220.0",
                  "code": "254111",
                  "display": "Midwife"
                }
              ],
              "text": "AHPRA qualification for Midwife"
            },
            "issuer": {
              "display": "AHPRA"
            }
          }
        ]
      }
    },
    {
      "fullUrl": "https://ncdhc.health.gov.au/fhir/v1.0.0/Practitioner/dd78393f-37ca-4738-81d6-d9595b2e5d0d",
      "resource": {
        "resourceType": "Practitioner",
        "id": "dd78393f-37ca-4738-81d6-d9595b2e5d0d",
        "text": {
          "status": "generated",
          "div": "<div xmlns=\"http://www.w3.org/1999/xhtml\"><p><b>Generated Narrative with Details</b></p><p><b>id</b>: dd78393f-37ca-4738-81d6-d9595b2e5d0d</p><p><b>identifier</b>: HPI-I = 8003611234567893</p><p><b>name</b>: Dr. Carla Smith </p><h3>Qualifications</h3><table class=\"grid\"><tr><td>-</td><td><b>Identifier</b></td><td><b>Code</b></td><td><b>Issuer</b></td></tr><tr><td>*</td><td>AHPRA registration number = MED0000932850</td><td>AHPRA qualification for General Practitioner <span style=\"background: LightGoldenRodYellow\">(Details : {http://www.abs.gov.au/ausstats/abs@.nsf/mf/1220.0 code '253111' = '253111', given as 'General Medical Practitioner'})</span></td><td>AHPRA</td></tr></table></div>"
        },
        "identifier": [
          {
            "type": {
              "coding": [
                {
                  "system": "http://hl7.org/fhir/v2/0203",
                  "code": "NPI",
                  "display": "National provider identifier"
                }
              ],
              "text": "HPI-I"
            },
            "system": "http://ns.electronichealth.net.au/id/hi/hpii/1.0",
            "value": "8003611234567893"
          }
        ],
        "name": [
          {
            "family": "Carla",
            "given": [
              "Smith"
            ],
            "prefix": [
              "Dr"
            ]
          }
        ],
        "qualification": [
          {
            "identifier": [
              {
                "type": {
                  "coding": [
                    {
                      "system": "http://hl7.org.au/fhir/v2/0203",
                      "code": "AHPRA",
                      "display": "Australian Health Practitioner Regulation Agency Registration Number"
                    }
                  ],
                  "text": "AHPRA registration number"
                },
                "system": "http://hl7.org.au/id/ahpra-registration-number",
                "value": "MED0000932850"
              }
            ],
            "code": {
              "coding": [
                {
                  "system": "http://www.abs.gov.au/ausstats/abs@.nsf/mf/1220.0",
                  "code": "253111",
                  "display": "General Medical Practitioner"
                }
              ],
              "text": "AHPRA qualification for General Practitioner"
            },
            "issuer": {
              "display": "AHPRA"
            }
          }
        ]
      }
    },
    {
      "fullUrl": "https://ncdhc.health.gov.au/fhir/v1.0.0/Observation/741a72a8-df75-4484-ac89-ac4923f03b42",
      "resource": {
        "resourceType": "Observation",
        "meta": {
          "versionId": "1",
          "lastUpdated": "2019-10-27T16:13:03Z",
          "profile": "http://hl7.org.au/fhir/ch/v1/StructureDefinition/ncdhc-observation-estimated-gestation"
        },
        "text": {
          "status": "additional",
          "div": "<div xmlns=\"http://www.w3.org/1999/xhtml\">Estimated lenght of gestation noted as : 28 wks</div>"
        },
        "id": "741a72a8-df75-4484-ac89-ac4923f03b42",
        "status": "final",
        "code": {
          "coding": [
            {
              "system": "http://loinc.org",
              "code": "72147-2"
            },
            {
              "system": "http://snomed.info/sct",
              "code": "412726003"
            }
          ],
          "text": "Estimated lenght of Genstation"
        },
        "subject": {
          "reference": "Patient/dd78393f-37ca-4738-81d6-d9595b2e5d0f",
          "display": "Baby of Eve Bill"
        },
        "effectiveDateTime": "2018-12-27T16:13:03Z",
        "performer": [
          {
            "reference": "Practitioner/dd78393f-37ca-4738-81d6-d9595b2e5d0d",
            "display": "Examiner"
          },
          {
            "reference": "Organization/od78393f-37ca-4738-81d6-d9595b2e5d0f",
            "display": "Organisation"
          }
        ],
        "valueQuantity": {
          "value": 96,
          "unit": "days",
          "system": "http://unitsofmeasure.org",
          "code": "d"
        }
      }
    },
    {
      "fullUrl": "https://ncdhc.health.gov.au/fhir/v1.0.0/Observation/841a72a8-df75-4484-ac89-ac4923f03b42",
      "resource": {
        "resourceType": "Observation",
        "id": "841a72a8-df75-4484-ac89-ac4923f03b42",
        "meta": {
          "profile": [
            "http://hl7.org.au/fhir/ch/v1/StructureDefinition/ncdhc-observation-birth-abnormalities"
          ]
        },
        "text": {
          "status": "additional",
          "div": "<div xmlns=\"http://www.w3.org/1999/xhtml\">Multiple Birth Abnormalities noted at birth</div>"
        },
        "status": "final",
        "code": {
          "coding": [
            {
              "system": "http://loinc.org",
              "code": "73780-9"
            },
            {
              "system": "http://snomed.info/sct",
              "code": "414025005"
            }
          ],
          "text": "Abnormalities noted at Birth"
        },
        "subject": {
          "reference": "Patient/dd78393f-37ca-4738-81d6-d9595b2e5d0f"
        },
        "effectiveDateTime": "2019-01-02",
        "performer": [
          {
            "reference": "Practitioner/dd78393f-37ca-4738-81d6-d9595b2e5d0d",
            "display": "Examiner"
          },
          {
            "reference": "Organization/od78393f-37ca-4738-81d6-d9595b2e5d0f",
            "display": "Organisation"
          }
        ],
        "valueString": "The foot is twisted out of shape or position"
      }
    },
    {
      "fullUrl": "https://ncdhc.health.gov.au/fhir/v1.0.0/Observation/641a72a8-df75-4484-ac89-ac4923f03b41",
      "resource": {
        "resourceType": "Observation",
        "id": "641a72a8-df75-4484-ac89-ac4923f03b41",
        "meta": {
          "profile": [
            "http://hl7.org.au/fhir/ch/v1/StructureDefinition/ncdhc-observation-method-of-delivery"
          ]
        },
        "text": {
          "status": "additional",
          "div": "<div xmlns=\"http://www.w3.org/1999/xhtml\">Method of Delivery used during the brirthing process</div>"
        },
        "status": "final",
        "code": {
          "coding": [
            {
              "system": "http://loinc.org",
              "code": "72149-8"
            },
            {
              "system": "http://snomed.info/sct",
              "code": "289258004"
            }
          ],
          "text": "Method of Delivery"
        },
        "subject": {
          "reference": "Patient/dd78393f-37ca-4738-81d6-d9595b2e5d0f"
        },
        "effectiveDateTime": "2019-01-02",
        "performer": [
          {
            "reference": "Practitioner/dd78393f-37ca-4738-81d6-d9595b2e5d0d",
            "display": "Examiner"
          },
          {
            "reference": "Organization/od78393f-37ca-4738-81d6-d9595b2e5d0f",
            "display": "Organisation"
          }
        ],
        "valueCodeableConcept": {
          "coding": [
            {
              "system": "http://snomed.info/sct",
              "code": "200130005"
            }
          ]
        }
      }
    },
    {
      "fullUrl": "https://ncdhc.health.gov.au/fhir/v1.0.0/Observation/641a72a8-df75-4484-ac89-ac4923f03b42",
      "resource": {
        "resourceType": "Observation",
        "id": "641a72a8-df75-4484-ac89-ac4923f03b42",
        "meta": {
          "profile": [
            "http://hl7.org.au/fhir/ch/v1/StructureDefinition/ncdhc-observation-labour-induced"
          ]
        },
        "text": {
          "status": "additional",
          "div": "<div xmlns=\"http://www.w3.org/1999/xhtml\">Labour Initiation</div>"
        },
        "status": "final",
        "code": {
          "coding": [
            {
              "system": "http://loinc.org",
              "code": "LA20022-2"
            },
            {
              "system": "http://snomed.info/sct",
              "code": "20236002"
            }
          ],
          "text": "Labour Initiation"
        },
        "subject": {
          "reference": "Patient/dd78393f-37ca-4738-81d6-d9595b2e5d0f"
        },
        "effectiveDateTime": "2019-01-02",
        "performer": [
          {
            "reference": "Practitioner/dd78393f-37ca-4738-81d6-d9595b2e5d0d",
            "display": "Examiner"
          },
          {
            "reference": "Organization/od78393f-37ca-4738-81d6-d9595b2e5d0f",
            "display": "Organisation"
          }
        ],
        "valueCodeableConcept": {
          "coding": [
            {
              "system": "http://snomed.info/sct",
              "code": "84457005",
              "display": "Spontaneous onset of labour"
            }
          ]
        }
      }
    }
  ]
}