{
  "resourceType": "Bundle",
  "id": "ncdhc-bundle-transaction-create-authrep",
  "type": "transaction",
  "entry": [
    {
      "fullUrl": "urn:uuid:61ebe359-bfdc-4613-8bf2-c5e300945f0c",
      "resource": {
        "resourceType": "RelatedPerson",
        "contained": [
          {
            "resourceType": "Patient",
            "id": "eb78393f-37ca-4738-81d6-d9595b2e5d0f"
          }
        ],
        "patient": {
          "reference": "#eb78393f-37ca-4738-81d6-d9595b2e5d0f"
        }
      },
      "request": {
        "method": "POST",
        "url": "RelatedPerson"
      }
    },
    {
      "fullUrl": "urn:uuid:61ebe359-bfdc-4613-8bf2-c5e300945f0a",
      "resource": {
        "resourceType": "Person",
        "id": "61ebe359-bfdc-4613-8bf2-c5e300945f0a",
        "text": {
          "status": "generated",
          "div": "<div xmlns=\"http://www.w3.org/1999/xhtml\">Eve Bill Registered as Authorised Representative</div>"
        },
        "name": [
          {
            "text": "Eve Bill",
            "family": "Bill",
            "given": [
              "Eve"
            ]
          }
        ],
        "telecom": [
          {
            "system": "email",
            "value": "e.bill@kill.com",
            "use": "home"
          },
          {
            "system": "phone",
            "value": "0444 123 125",
            "use": "mobile"
          }
        ],
        "gender": "female",
        "address": [
          {
            "use": "home",
            "line": [
              "534 Erewhon St"
            ],
            "city": "PleasantVille",
            "state": "NSW",
            "postalCode": "2134"
          }
        ],
        "active": true
      },
      "request": {
        "method": "PUT",
        "url": "Person"
      }
    },
    {
      "fullUrl": "urn:uuid:61ebe359-bfdc-4613-8bf2-c5e300945f0b",
      "resource": {
        "resourceType": "Consent",
        "contained": [
          {
            "resourceType": "Patient",
            "id": "eb78393f-37ca-4738-81d6-d9595b2e5d0f"
          }
        ],
        "text": {
          "status": "generated",
          "div": "<div xmlns=\"http://www.w3.org/1999/xhtml\">Expected Mother Registered as Authorised Representative</div>"
        },
        "status": "active",
        "category": [
          {
            "coding": [
              {
                "system": "http://hl7.org.au/fhir/ch/v1/CodeSystem/ncdhc-consent-category",
                "code": "AUTHCONST",
                "display": "NCDHC Authorisation Consent"
              }
            ]
          }
        ],
        "patient": {
          "reference": "#eb78393f-37ca-4738-81d6-d9595b2e5d0f"
        },
        "dateTime": "2019-10-23T16:13:03Z",
        "consentingParty": [
          {
            "reference": "urn:uuid:61ebe359-bfdc-4613-8bf2-c5e300945f0c",
            "display": "Eve Bill"
          }
        ],
        "actor": [
          {
            "role": {
              "coding": [
                {
                  "system": " http://hl7.org.au/fhir/ch/v1/CodeSystem/ncdhc-consent-category-1",
                  "code": "RESPRSN",
                  "display": "Authorised Representative"
                }
              ]
            },
            "reference": {
              "reference": "urn:uuid:61ebe359-bfdc-4613-8bf2-c5e300945f0c",
              "display": "Eve Bill"
            }
          }
        ],
        "policyRule": "urn:uuid:44847642-b160-4e0b-9ce7-69611bf5b303"
      },
      "request": {
        "method": "POST",
        "url": "Consent"
      }
    },
    {
      "fullUrl": "urn:uuid:61ebe359-bfdc-4613-8bf2-c5e300945f0b",
      "resource": {
        "resourceType": "Consent",
        "contained": [
          {
            "resourceType": "Patient",
            "id": "eb78393f-37ca-4738-81d6-d9595b2e5d0f"
          }
        ],
        "text": {
          "status": "generated",
          "div": "<div xmlns=\"http://www.w3.org/1999/xhtml\">Expected Mother Registered as Authorised Representative</div>"
        },
        "status": "active",
        "category": [
          {
            "coding": [
              {
                "system": " http://hl7.org.au/fhir/ch/v1/CodeSystem/ncdhc-consent-category-1",
                "code": "CROPT",
                "display": "Child Digital Health Record Operation Consent"
              }
            ]
          }
        ],
        "patient": {
          "reference": "#eb78393f-37ca-4738-81d6-d9595b2e5d0f"
        },
        "dateTime": "2019-10-23T16:13:03Z",
        "consentingParty": [
          {
            "reference": "urn:uuid:61ebe359-bfdc-4613-8bf2-c5e300945f0c",
            "display": "Eve Bill"
          }
        ],
        "policyRule": "urn:uuid:44847642-b160-4e0b-9ce7-69611bf5b303"
      },
      "request": {
        "method": "POST",
        "url": "Consent"
      }
    },
    {
      "fullUrl": "urn:uuid:91ebe359-bfdc-4613-8bf2-c5e300945f0b",
      "resource": {
        "resourceType": "Consent",
        "contained": [
          {
            "resourceType": "Patient",
            "id": "eb78393f-37ca-4738-81d6-d9595b2e5d0f"
          }
        ],
        "text": {
          "status": "generated",
          "div": "<div xmlns=\"http://www.w3.org/1999/xhtml\">Expected Mother Registered as Authorised Representative</div>"
        },
        "status": "active",
        "category": [
          {
            "coding": [
              {
                "system": " http://hl7.org.au/fhir/ch/v1/CodeSystem/ncdhc-consent-category-1",
                "code": "MHRINTR",
                "display": "Consent to Interact with My Health Record"
              }
            ]
          }
        ],
        "patient": {
          "reference": "#eb78393f-37ca-4738-81d6-d9595b2e5d0f"
        },
        "dateTime": "2019-10-23T16:13:03Z",
        "consentingParty": [
          {
            "reference": "urn:uuid:61ebe359-bfdc-4613-8bf2-c5e300945f0c",
            "display": "Eve Bill"
          }
        ],
        "policyRule": "urn:uuid:44847642-b160-4e0b-9ce7-69611bf5b303"
      },
      "request": {
        "method": "POST",
        "url": "Consent"
      }
    }
  ]
}