{
    "resourceType": "Bundle",
    "id": "ncdhc-bundle-transaction-nbdelivery-request-payload",
    "type": "transaction",
    "entry": [
      {
        "fullUrl": "urn:uuid:61ebe359-bfdc-4613-8bf2-c5e300945f0a",
        "resource": {
          "resourceType": "Bundle",
          "id": "61ebe359-bfdc-4613-8bf2-c5e300945f0a",
          "identifier": {
            "system": "urn:ietf:rfc:3986",
            "value": "urn:uuid:0c4151bd-1cbf-4d64-b04d-cd9187a4c6e0"
          },
          "type": "document",
          "entry": [
            {
              "fullUrl": "urn:uuid:27700024-070c-4141-8109-9d9fa34dd24b",
              "resource": {
                "resourceType": "Composition",
                "id": "27700024-070c-4141-8109-9d9fa34dd24b",
                "text": {
                  "status": "generated",
                  "div": "<div xmlns=\"http://www.w3.org/1999/xhtml\"><p><b>Generated Narrative with Details</b></p><p><b>id</b>: 180f219f-97a8-486d-99d9-ed631fe4fc57</p><p><b>meta</b>: </p><p><b>status</b>: final</p><p><b>type</b>: Newborn Delivery </p><p><b>title</b>: Newborn Delivery</p><p><b>confidentiality</b>: N</p></div>"
                },
                "status": "final",
                "type": {
                  "coding": [
                    {
                      "system": "http://hl7.org.au/fhir/ch/v1/CodeSystem/ncdhc-document-type",
                      "code": "NEWBRNDEL"
                    }
                  ],
                  "text": "Newborn Delivery Health Interaction"
                },
                "subject": {
                  "reference": "Patient/dd78393f-37ca-4738-81d6-d9595b2e5d0f",
                  "display": "Baby of Eve Bill"
                },
                "date": "2018-12-24T12:30:02Z",
                "author": [
                  {
                    "reference": "Practitioner/3db74777-fd3d-4d3b-92ec-d405977a11a5",
                    "display": "Dr. Adam Dev"
                  }
                ],
                "title": "Newborn Delivery Health Interaction",
                "confidentiality": "N",
                "attester": [
                  {
                    "mode": "professional",
                    "time": "2018-12-24T12:30:02Z",
                    "party": {
                      "reference": "Organization/od78393f-37ca-4738-81d6-d9595b2e5d0f"
                    }
                  }
                ],
                "section": [
                  {
                    "title": "Estimated gestation",
                    "code": {
                      "coding": [
                        {
                          "system": "http://loinc.org",
                          "code": "72147-2"
                        }
                      ]
                    },
                    "text": {
                      "status": "additional",
                      "div": "<div xmlns=\"http://www.w3.org/1999/xhtml\">Gestational age in weeks and days (usually equivalent to length of pregnancy).</div>"
                    },
                    "entry": [
                      {
                        "reference": "Observation/241a72a8-df75-4484-ac89-ac4923f03b42"
                      }
                    ]
                  },
                  {
                    "title": "Abnormalities noted at birth",
                    "code": {
                      "coding": [
                        {
                          "system": "http://loinc.org",
                          "code": "73780-9"
                        }
                      ]
                    },
                    "text": {
                      "status": "additional",
                      "div": "<div xmlns=\"http://www.w3.org/1999/xhtml\">Physical problems identified with the baby at, or shortly after birth. E.g. cleft lip/palate, extensive bruising, cephalohematoma etc.</div>"
                    },
                    "entry": [
                      {
                        "reference": "Observation/841a72a8-df75-4484-ac89-ac4923f03b42"
                      }
                    ]
                  },
                  {
                    "title": "Apgar scores",
                    "code": {
                      "coding": [
                        {
                          "system": "http://loinc.org",
                          "code": "LP32192-4"
                        }
                      ]
                    },
                    "text": {
                      "status": "additional",
                      "div": "<div xmlns=\"http://www.w3.org/1999/xhtml\">Apgar scores</div>"
                    },
                    "entry": [
                      {
                        "reference": "Observation/901a72a8-df75-4484-ac89-ac4923f03b01"
                      }
                    ]
                  },
                  {
                    "title": "Medication administered",
                    "code": {
                      "coding": [
                        {
                          "system": "http://loinc.org",
                          "code": "29303-5"
                        }
                      ]
                    },
                    "text": {
                      "status": "additional",
                      "div": "<div xmlns=\"http://www.w3.org/1999/xhtml\">Vitamin K1 administered</div>"
                    },
                    "entry": [
                      {
                        "reference": "MedicationStatement/141a72a8-df75-4484-ac89-ac4923f03b10"
                      }
                    ]
                  },
                  {
                    "title": "Vital Signs and Measurements",
                    "code": {
                      "coding": [
                        {
                          "system": "http://loinc.org",
                          "code": "67795-5"
                        }
                      ]
                    },
                    "text": {
                      "status": "additional",
                      "div": "<div xmlns=\"http://www.w3.org/1999/xhtml\">Vital Signs</div>"
                    },
                    "entry": [
                      {
                        "reference": "Observation/741a72a8-df75-4484-ac89-ac4923f03b44"
                      },
                      {
                        "reference": "Observation/541a72a8-df75-4484-ac89-ac4923f03b42"
                      },
                      {
                        "reference": "Observation/541a72a8-df75-4484-ac89-ac4923f03b47"
                      }
                    ]
                  },
                  {
                    "title": "Maternal morbidity",
                    "code": {
                      "coding": [
                        {
                          "system": "http://loinc.org",
                          "code": "73781-7"
                        }
                      ]
                    },
                    "text": {
                      "status": "additional",
                      "div": "<div xmlns=\"http://www.w3.org/1999/xhtml\">Details on Birth Complications and Pregency Complications</div>"
                    },
                    "entry": [
                      {
                        "reference": "Observation/541a72a8-df75-4484-ac89-ac4923f03b52"
                      },
                      {
                        "reference": "Observation/541a72a8-df75-4484-ac89-ac4923f03b53"
                      }
                    ]
                  },
                  {
                    "title": "Labour and delivery",
                    "code": {
                      "coding": [
                        {
                          "system": "http://loinc.org",
                          "code": "LA20786-2"
                        }
                      ]
                    },
                    "text": {
                      "status": "additional",
                      "div": "<div xmlns=\"http://www.w3.org/1999/xhtml\">Details on Type of Birth and Labour Induced</div>"
                    },
                    "entry": [
                      {
                        "reference": "Observation/641a72a8-df75-4484-ac89-ac4923f03b41"
                      },
                      {
                        "reference": "Observation/641a72a8-df75-4l484-ac89-ac4923f03b42"
                      }
                    ]
                  }
                ]
              }
            },
            {
              "fullUrl": "urn:uuid:dd78393f-37ca-4738-81d6-d9595b2e5d0f",
              "resource": {
                "resourceType": "Patient",
                "text": {
                  "status": "generated",
                  "div": "<div xmlns=\"http://www.w3.org/1999/xhtml\">\n\t\t\t\t\t\t\n<h1>Baby of Eve Bill</h1>\n\t\t\t\t\t\n</div>"
                },
                "id": "dd78393f-37ca-4738-81d6-d9595b2e5d0f",
                "extension": [
                  {
                    "url": "http://hl7.org/fhir/StructureDefinition/birthPlace",
                    "valueAddress": {
                      "text": "Blacktown Hospital"
                    }
                  }
                ],
                "identifier": [
                  {
                    "type": {
                      "coding": [
                        {
                          "system": "http://hl7.org/fhir/v2/0203",
                          "code": "NI",
                          "display": "National unique individual identifier"
                        }
                      ],
                      "text": "IHI"
                    },
                    "system": "http://ns.electronichealth.net.au/id/hi/ihi/1.0",
                    "value": "8003608000024083"
                  },
                  {
                    "type": {
                      "coding": [
                        {
                          "system": "http://hl7.org/fhir/v2/0203",
                          "code": "MR",
                          "display": "Medical Record Number"
                        }
                      ],
                      "text": "Medical Record Number"
                    },
                    "system": "http://ns.electronichealth.net.au/id/hpio-scoped/medicalrecord/1.0",
                    "value": "8003620000000000",
                    "assigner": {
                      "display": "Blacktown Hospital"
                    }
                  }
                ],
                "active": true,
                "name": [
                  {
                    "text": "Baby of Eve Bill",
                    "family": "Bill",
                    "given": [
                      "Baby of Eve Bill"
                    ]
                  }
                ],
                "gender": "female",
                "birthDate": "2018-12-24",
                "_birthDate": {
                  "extension": [
                    {
                      "url": "http://hl7.org/fhir/StructureDefinition/patient-birthTime",
                      "valueDateTime": "2018-12-24T14:35:45-05:00"
                    }
                  ]
                },
                "address": [
                  {
                    "text": "home",
                    "line": [
                      "31 Pacquola Street"
                    ],
                    "city": "Blacktown",
                    "state": "NSW",
                    "postalCode": "2148",
                    "country": "Australia"
                  }
                ],
                "contact": [
                  {
                    "relationship": [
                      {
                        "coding": [
                          {
                            "system": "http://hl7.org/fhir/v3/RoleCode",
                            "code": "MTH",
                            "display": "mother"
                          }
                        ],
                        "text": "Mother"
                      }
                    ],
                    "name": {
                      "text": "Eve Bill",
                      "family": "Bill",
                      "given": [
                        "Eve"
                      ]
                    }
                  },
                  {
                    "relationship": [
                      {
                        "coding": [
                          {
                            "system": "http://hl7.org/fhir/v3/RoleCode",
                            "code": "FTH",
                            "display": "father"
                          }
                        ],
                        "text": "Father"
                      }
                    ],
                    "name": {
                      "text": "Simmons Bill",
                      "family": "Bill",
                      "given": [
                        "Simmons"
                      ]
                    }
                  }
                ]
              }
            },
            {
              "fullUrl": "urn:uuid:od78393f-37ca-4738-81d6-d9595b2e5d0f",
              "resource": {
                "resourceType": "Organization",
                "id": "od78393f-37ca-4738-81d6-d9595b2e5d0f",
                "text": {
                  "status": "generated",
                  "div": "<div xmlns=\"http://www.w3.org/1999/xhtml\"><p><b>Generated Narrative with Details</b></p><p><b>id</b>: od78393f-37ca-4738-81d6-d9595b2e5d0f</p><p><b>identifier</b>: ABN = 51824753556</p><p><b>type</b>: Healthcare Provider <span style=\"background: LightGoldenRodYellow\">(Details : {http://hl7.org/fhir/organization-type code 'prov' = 'Healthcare Provider', given as 'Healthcare Provider'})</span></p><p><b>name</b>: Blacktown Hospital</p><p><b>telecom</b>: enquiries@blacktownhospital.com.au(WORK)</p></div>"
                },
                "identifier": [
                  {
                    "type": {
                      "text": "ABN"
                    },
                    "system": "http://hl7.org.au/id/abn",
                    "value": "51824753556"
                  }
                ],
                "type": [
                  {
                    "coding": [
                      {
                        "system": "http://hl7.org/fhir/organization-type",
                        "code": "prov",
                        "display": "Healthcare Provider"
                      }
                    ]
                  }
                ],
                "name": "Blacktown Hospital",
                "telecom": [
                  {
                    "system": "email",
                    "value": "enquiries@blacktownhospital.com.au",
                    "use": "work"
                  }
                ]
              }
            },
            {
              "fullUrl": "urn:uuid:3db74777-fd3d-4d3b-92ec-d405977a11a5",
              "resource": {
                "resourceType": "Practitioner",
                "id": "3db74777-fd3d-4d3b-92ec-d405977a11a5",
                "text": {
                  "status": "generated",
                  "div": "<div xmlns=\"http://www.w3.org/1999/xhtml\">\n\t\t\t\t\t\t\n<p>Dr Adam Dev</p>\n\t\t\t\t\t\n</div>"
                },
                "identifier": [
                  {
                    "type": {
                      "coding": [
                        {
                          "system": "http://hl7.org/fhir/v2/0203",
                          "code": "NPI",
                          "display": "National provider identifier"
                        }
                      ],
                      "text": "HPI-I"
                    },
                    "system": "http://ns.electronichealth.net.au/id/hi/hpii/1.0",
                    "value": "8003610833334085"
                  }
                ],
                "active": true,
                "name": [
                  {
                    "family": "Dev",
                    "given": [
                      "Adam"
                    ],
                    "prefix": [
                      "Dr"
                    ]
                  }
                ],
                "qualification": [
                  {
                    "identifier": [
                      {
                        "type": {
                          "coding": [
                            {
                              "system": "http://hl7.org.au/fhir/v2/0203",
                              "code": "AHPRA",
                              "display": "Australian Health Practitioner Regulation Agency Registration Number"
                            }
                          ],
                          "text": "AHPRA Registration Number"
                        },
                        "system": "http://hl7.org.au/id/ahpra-registration-number",
                        "value": "MED0000932850"
                      }
                    ],
                    "code": {
                      "coding": [
                        {
                          "system": "http://www.abs.gov.au/ausstats/abs@.nsf/mf/1220.0",
                          "code": "254111",
                          "display": "Midwife"
                        }
                      ],
                      "text": "AHPRA qualification for Midwife"
                    },
                    "issuer": {
                      "display": "AHPRA"
                    }
                  }
                ]
              }
            },
            {
              "fullUrl": "urn:uuid:dd78393f-37ca-4738-81d6-d9595b2e5d0d",
              "resource": {
                "resourceType": "Practitioner",
                "id": "dd78393f-37ca-4738-81d6-d9595b2e5d0d",
                "text": {
                  "status": "generated",
                  "div": "<div xmlns=\"http://www.w3.org/1999/xhtml\"><p><b>Generated Narrative with Details</b></p><p><b>id</b>: dd78393f-37ca-4738-81d6-d9595b2e5d0d</p><p><b>identifier</b>: HPI-I = 8003611234567893</p><p><b>name</b>: Dr. Carla Smith </p><h3>Qualifications</h3><table class=\"grid\"><tr><td>-</td><td><b>Identifier</b></td><td><b>Code</b></td><td><b>Issuer</b></td></tr><tr><td>*</td><td>AHPRA Registration Number = MED0000932850</td><td>AHPRA qualification for General Practitioner <span style=\"background: LightGoldenRodYellow\">(Details : {http://www.abs.gov.au/ausstats/abs@.nsf/mf/1220.0 code '253111' = '253111', given as 'General Medical Practitioner'})</span></td><td>AHPRA</td></tr></table></div>"
                },
                "identifier": [
                  {
                    "type": {
                      "coding": [
                        {
                          "system": "http://hl7.org/fhir/v2/0203",
                          "code": "NPI",
                          "display": "National provider identifier"
                        }
                      ],
                      "text": "HPI-I"
                    },
                    "system": "http://ns.electronichealth.net.au/id/hi/hpii/1.0",
                    "value": "8003611234567893"
                  }
                ],
                "name": [
                  {
                    "family": "Carla",
                    "given": [
                      "Smith"
                    ],
                    "prefix": [
                      "Dr"
                    ]
                  }
                ],
                "qualification": [
                  {
                    "identifier": [
                      {
                        "type": {
                          "coding": [
                            {
                              "system": "http://hl7.org.au/fhir/v2/0203",
                              "code": "AHPRA",
                              "display": "Australian Health Practitioner Regulation Agency Registration Number"
                            }
                          ],
                          "text": "AHPRA registration Number"
                        },
                        "system": "http://hl7.org.au/id/ahpra-registration-number",
                        "value": "MED0000932850"
                      }
                    ],
                    "code": {
                      "coding": [
                        {
                          "system": "http://www.abs.gov.au/ausstats/abs@.nsf/mf/1220.0",
                          "code": "253111",
                          "display": "General Medical Practitioner"
                        }
                      ],
                      "text": "AHPRA qualification for General Practitioner"
                    },
                    "issuer": {
                      "display": "AHPRA"
                    }
                  }
                ]
              }
            },
            {
              "fullUrl": "urn:uuid:741a72a8-df75-4484-ac89-ac4923f03b42",
              "resource": {
                "resourceType": "Observation",
                "text": {
                  "status": "additional",
                  "div": "<div xmlns=\"http://www.w3.org/1999/xhtml\">Estimated length of gestation noted as : 28 wks</div>"
                },
                "id": "241a72a8-df75-4484-ac89-ac4923f03b42",
                "status": "final",
                "code": {
                  "coding": [
                    {
                      "system": "http://loinc.org",
                      "code": "72147-2"
                    },
                    {
                      "system": "http://snomed.info/sct",
                      "code": "412726003"
                    }
                  ],
                  "text": "Estimated length of Gestation"
                },
                "subject": {
                  "reference": "Patient/dd78393f-37ca-4738-81d6-d9595b2e5d0f",
                  "display": "Baby of Eve Bill"
                },
                "effectiveDateTime": "2018-12-27T16:13:03Z",
                "performer": [
                  {
                    "reference": "Practitioner/dd78393f-37ca-4738-81d6-d9595b2e5d0d",
                    "display": "Examiner"
                  },
                  {
                    "reference": "Organization/od78393f-37ca-4738-81d6-d9595b2e5d0f",
                    "display": "Organisation"
                  }
                ],
                "valueQuantity": {
                  "value": 96,
                  "unit": "days",
                  "system": "http://unitsofmeasure.org",
                  "code": "d"
                }
              }
            },
            {
              "fullUrl": "urn:uuid:841a72a8-df75-4484-ac89-ac4923f03b42",
              "resource": {
                "resourceType": "Observation",
                "id": "841a72a8-df75-4484-ac89-ac4923f03b42",
                "text": {
                  "status": "additional",
                  "div": "<div xmlns=\"http://www.w3.org/1999/xhtml\">Multiple Birth Abnormalities noted at birth</div>"
                },
                "status": "final",
                "code": {
                  "coding": [
                    {
                      "system": "http://loinc.org",
                      "code": "73780-9"
                    },
                    {
                      "system": "http://snomed.info/sct",
                      "code": "414025005"
                    }
                  ],
                  "text": "Abnormalities noted at Birth"
                },
                "subject": {
                  "reference": "Patient/dd78393f-37ca-4738-81d6-d9595b2e5d0f"
                },
                "effectiveDateTime": "2019-01-02",
                "performer": [
                  {
                    "reference": "Practitioner/dd78393f-37ca-4738-81d6-d9595b2e5d0d",
                    "display": "Examiner"
                  },
                  {
                    "reference": "Organization/od78393f-37ca-4738-81d6-d9595b2e5d0f",
                    "display": "Organisation"
                  }
                ],
                "valueString": "The foot is twisted out of shape or position"
              }
            },
            {
              "fullUrl": "urn:uuid:641a72a8-df75-4484-ac89-ac4923f03b41",
              "resource": {
                "resourceType": "Observation",
                "id": "641a72a8-df75-4484-ac89-ac4923f03b41",
                "text": {
                  "status": "additional",
                  "div": "<div xmlns=\"http://www.w3.org/1999/xhtml\">Method of Delivery used during the brirthing process</div>"
                },
                "status": "final",
                "code": {
                  "coding": [
                    {
                      "system": "http://loinc.org",
                      "code": "72149-8"
                    },
                    {
                      "system": "http://snomed.info/sct",
                      "code": "289258004"
                    }
                  ],
                  "text": "Method of Delivery"
                },
                "subject": {
                  "reference": "Patient/dd78393f-37ca-4738-81d6-d9595b2e5d0f"
                },
                "effectiveDateTime": "2019-01-02",
                "performer": [
                  {
                    "reference": "Practitioner/dd78393f-37ca-4738-81d6-d9595b2e5d0d",
                    "display": "Examiner"
                  },
                  {
                    "reference": "Organization/od78393f-37ca-4738-81d6-d9595b2e5d0f",
                    "display": "Organisation"
                  }
                ],
                "valueCodeableConcept": {
                  "coding": [
                    {
                      "system": "http://snomed.info/sct",
                      "code": "200130005"
                    }
                  ]
                }
              }
            },
            {
              "fullUrl": "urn:uuid:901a72a8-df75-4484-ac89-ac4923f03b01",
              "resource": {
                "resourceType": "Observation",
                "id": "901a72a8-df75-4484-ac89-ac4923f03b01",
                "text": {
                  "status": "generated",
                  "div": "<div xmlns=\"http://www.w3.org/1999/xhtml\">1 minute Apgar Score</div>"
                },
                "status": "final",
                "code": {
                  "coding": [
                    {
                      "system": "http://loinc.org",
                      "code": "9272-6",
                      "display": "1 minute Apgar Score"
                    },
                    {
                      "system": "http://snomed.info/sct",
                      "code": "169895004",
                      "display": "Apgar at 1 minute"
                    }
                  ],
                  "text": "1 minute Apgar Score"
                },
                "subject": {
                  "reference": "Patient/dd78393f-37ca-4738-81d6-d9595b2e5d0f",
                  "display": "Baby of Eve Bill"
                },
                "effectiveDateTime": "2019-05-18T22:33:22Z",
                "performer": [
                  {
                    "reference": "Practitioner/dd78393f-37ca-4738-81d6-d9595b2e5d0d",
                    "display": "Examiner"
                  },
                  {
                    "reference": "Organization/od78393f-37ca-4738-81d6-d9595b2e5d0f",
                    "display": "Organisation"
                  }
                ],
                "valueQuantity": {
                  "value": 0,
                  "system": "http://unitsofmeasure.org",
                  "code": "{score}"
                },
                "component": [
                  {
                    "code": {
                      "coding": [
                        {
                          "system": "http://loinc.org",
                          "code": "32406-1",
                          "display": "1 minute Apgar Color"
                        },
                        {
                          "system": "http://snomed.info/sct",
                          "code": "249227004",
                          "display": "Apgar color score"
                        }
                      ],
                      "text": "Apgar color score"
                    },
                    "valueCodeableConcept": {
                      "coding": [
                        {
                          "extension": [
                            {
                              "url": "http://hl7.org/fhir/StructureDefinition/ordinalValue",
                              "valueDecimal": 0
                            }
                          ],
                          "system": "http://loinc.org",
                          "code": "LA6722-8",
                          "display": "The baby's whole body is completely bluish-gray or pale"
                        },
                        {
                          "system": "http://acme.ped/apgarcolor",
                          "code": "0"
                        }
                      ],
                      "text": "0. The baby's whole body is completely bluish-gray or pale"
                    }
                  },
                  {
                    "code": {
                      "coding": [
                        {
                          "system": "http://loinc.org",
                          "code": "32407-9",
                          "display": "1 minute Apgar Heart Rate"
                        },
                        {
                          "system": "http://snomed.info/sct",
                          "code": "249223000",
                          "display": "Apgar heart rate score"
                        }
                      ],
                      "text": "Apgar respiratory effort score"
                    },
                    "valueCodeableConcept": {
                      "coding": [
                        {
                          "extension": [
                            {
                              "url": "http://hl7.org/fhir/StructureDefinition/ordinalValue",
                              "valueDecimal": 0
                            }
                          ],
                          "system": "http://loinc.org",
                          "code": "LA6716-0",
                          "display": "No heart rate"
                        },
                        {
                          "system": "http://acme.ped/apgarheartrate",
                          "code": "0"
                        }
                      ],
                      "text": "0. No heart rate"
                    }
                  },
                  {
                    "code": {
                      "coding": [
                        {
                          "system": "http://loinc.org",
                          "code": "32409-5",
                          "display": "1 minute Apgar Reflex Irritability"
                        },
                        {
                          "system": "http://snomed.info/sct",
                          "code": "249226008",
                          "display": "Apgar response to stimulus score"
                        }
                      ],
                      "text": "Apgar response to stimulus score"
                    },
                    "valueCodeableConcept": {
                      "coding": [
                        {
                          "extension": [
                            {
                              "url": "http://hl7.org/fhir/StructureDefinition/ordinalValue",
                              "valueDecimal": 0
                            }
                          ],
                          "system": "http://loinc.org",
                          "code": "LA6719-4",
                          "display": "No response to airways being suctioned"
                        },
                        {
                          "system": "http://acme.ped/apgarreflexirritability",
                          "code": "0"
                        }
                      ],
                      "text": "0. No response to airways being suctioned"
                    }
                  },
                  {
                    "code": {
                      "coding": [
                        {
                          "system": "http://loinc.org",
                          "code": "32408-7",
                          "display": "1 minute Apgar Muscle Tone"
                        },
                        {
                          "system": "http://snomed.info/sct",
                          "code": "249225007",
                          "display": "Apgar muscle tone score"
                        }
                      ],
                      "text": "Apgar muscle tone score"
                    },
                    "valueCodeableConcept": {
                      "coding": [
                        {
                          "extension": [
                            {
                              "url": "http://hl7.org/fhir/StructureDefinition/ordinalValue",
                              "valueDecimal": 0
                            }
                          ],
                          "system": "http://loinc.org",
                          "code": "LA6713-7",
                          "display": "Limp; no movement"
                        },
                        {
                          "system": "http://acme.ped/apgarmuscletone",
                          "code": "0"
                        }
                      ],
                      "text": "0. Limp; no movement"
                    }
                  },
                  {
                    "code": {
                      "coding": [
                        {
                          "system": "http://loinc.org",
                          "code": "32410-3",
                          "display": "1 minute Apgar Respiratory effort"
                        },
                        {
                          "system": "http://snomed.info/sct",
                          "code": "249224006",
                          "display": "Apgar respiratory effort score"
                        }
                      ],
                      "text": "Apgar respiratory effort score"
                    },
                    "valueCodeableConcept": {
                      "coding": [
                        {
                          "extension": [
                            {
                              "url": "http://hl7.org/fhir/StructureDefinition/ordinalValue",
                              "valueDecimal": 0
                            }
                          ],
                          "system": "http://loinc.org",
                          "code": "LA6725-1",
                          "display": "Not breathing"
                        },
                        {
                          "system": "http://acme.ped/apgarrespiratoryeffort",
                          "code": "0"
                        }
                      ],
                      "text": "0. Not breathing"
                    }
                  }
                ]
              }
            },
            {
              "fullUrl": "urn:uuid:641a72a8-df75-4484-ac89-ac4923f03b42",
              "resource": {
                "resourceType": "Observation",
                "id": "641a72a8-df75-4484-ac89-ac4923f03b42",
                "text": {
                  "status": "additional",
                  "div": "<div xmlns=\"http://www.w3.org/1999/xhtml\">Labour Initiation</div>"
                },
                "status": "final",
                "code": {
                  "coding": [
                    {
                      "system": "http://loinc.org",
                      "code": "LA20022-2"
                    },
                    {
                      "system": "http://snomed.info/sct",
                      "code": "20236002"
                    }
                  ],
                  "text": "Labour Initiation"
                },
                "subject": {
                  "reference": "Patient/dd78393f-37ca-4738-81d6-d9595b2e5d0f"
                },
                "effectiveDateTime": "2019-01-02",
                "performer": [
                  {
                    "reference": "Practitioner/dd78393f-37ca-4738-81d6-d9595b2e5d0d",
                    "display": "Examiner"
                  },
                  {
                    "reference": "Organization/od78393f-37ca-4738-81d6-d9595b2e5d0f",
                    "display": "Organisation"
                  }
                ],
                "valueCodeableConcept": {
                  "coding": [
                    {
                      "system": "http://snomed.info/sct",
                      "code": "84457005",
                      "display": "Spontaneous onset of labour"
                    }
                  ]
                }
              }
            },
            {
              "fullUrl": "urn:uuid:541a72a8-df75-4484-ac89-ac4923f03b52",
              "resource": {
                "resourceType": "Observation",
                "text": {
                  "status": "additional",
                  "div": "<div xmlns=\"http://www.w3.org/1999/xhtml\">Birth Complication</div>"
                },
                "id": "541a72a8-df75-4484-ac89-ac4923f03b52",
                "status": "final",
                "code": {
                  "coding": [
                    {
                      "system": "http://snomed.info/sct",
                      "code": "198609003"
                    }
                  ],
                  "text": "Complication of pregnancy, childbirth and/or the puerperium"
                },
                "subject": {
                  "reference": "https://ncdhc.health.gov.au/fhir/v1.0.0/Patient/dd78393f-37ca-4738-81d6-d9595b2e5d0f",
                  "display": "Baby of Eve Bill"
                },
                "effectiveDateTime": "2018-12-27T16:13:03Z",
                "performer": [
                  {
                    "reference": "Practitioner/dd78393f-37ca-4738-81d6-d9595b2e5d0d",
                    "display": "Examiner"
                  },
                  {
                    "reference": "Organization/od78393f-37ca-4738-81d6-d9595b2e5d0f",
                    "display": "Organisation"
                  }
                ],
                "valueString": "Cephalopelvic disproportion (CPD)"
              }
            },
            {
              "fullUrl": "urn:uuid:541a72a8-df75-4484-ac89-ac4923f03b53",
              "resource": {
                "resourceType": "Observation",
                "text": {
                  "status": "additional",
                  "div": "<div xmlns=\"http://www.w3.org/1999/xhtml\">Pregnancy Complication</div>"
                },
                "id": "541a72a8-df75-4484-ac89-ac4923f03b53",
                "status": "final",
                "code": {
                  "coding": [
                    {
                      "system": "http://snomed.info/sct",
                      "code": "198609003"
                    }
                  ],
                  "text": "Complication of pregnancy, childbirth and/or the puerperium"
                },
                "subject": {
                  "reference": "Patient/dd78393f-37ca-4738-81d6-d9595b2e5d0f",
                  "display": "Baby of Eve Bill"
                },
                "effectiveDateTime": "2018-12-27T16:13:03Z",
                "performer": [
                  {
                    "reference": "Practitioner/dd78393f-37ca-4738-81d6-d9595b2e5d0d",
                    "display": "Examiner"
                  },
                  {
                    "reference": "Organization/od78393f-37ca-4738-81d6-d9595b2e5d0f",
                    "display": "Organisation"
                  }
                ],
                "valueString": "High blood pressure"
              }
            },
            {
              "fullUrl": "urn:uuid:741a72a8-df75-4484-ac89-ac4923f03b44",
              "resource": {
                "resourceType": "Observation",
                "text": {
                  "status": "additional",
                  "div": "<div xmlns=\"http://www.w3.org/1999/xhtml\">Birth Weight recorded : 6.09414 kg</div>"
                },
                "id": "741a72a8-df75-4484-ac89-ac4923f03b44",
                "status": "final",
                "category": [
                  {
                    "coding": [
                      {
                        "system": "http://terminology.hl7.org/CodeSystem/observation-category",
                        "code": "vital-signs",
                        "display": "Vital Signs"
                      }
                    ],
                    "text": "Vital Signs"
                  }
                ],
                "code": {
                  "coding": [
                    {
                      "system": "http://loinc.org",
                      "code": "29463-7",
                      "display": "Body Weight"
                    },
                    {
                      "system": "http://snomed.info/sct",
                      "code": "364589006"
                    },
                    {
                      "system": "http://snomed.info/sct",
                      "code": "27113001",
                      "display": "Body weight"
                    }
                  ],
                  "text": "Birth Weight"
                },
                "subject": {
                  "reference": "Patient/dd78393f-37ca-4738-81d6-d9595b2e5d0f",
                  "display": "Baby of Eve Bill"
                },
                "effectiveDateTime": "2018-12-27T16:13:03Z",
                "performer": [
                  {
                    "reference": "Practitioner/dd78393f-37ca-4738-81d6-d9595b2e5d0d",
                    "display": "Examiner"
                  },
                  {
                    "reference": "Organization/od78393f-37ca-4738-81d6-d9595b2e5d0f",
                    "display": "Organisation"
                  }
                ],
                "valueQuantity": {
                  "value": 6.09414,
                  "unit": "kg",
                  "system": "http://unitsofmeasure.org",
                  "code": "kg"
                }
              }
            },
            {
              "fullUrl": "urn:uuid:541a72a8-df75-4484-ac89-ac4923f03b42",
              "resource": {
                "resourceType": "Observation",
                "text": {
                  "status": "additional",
                  "div": "<div xmlns=\"http://www.w3.org/1999/xhtml\">Birth Length</div>"
                },
                "id": "541a72a8-df75-4484-ac89-ac4923f03b42",
                "status": "final",
                "category": [
                  {
                    "coding": [
                      {
                        "system": "http://terminology.hl7.org/CodeSystem/observation-category",
                        "code": "vital-signs",
                        "display": "Vital Signs"
                      }
                    ],
                    "text": "Vital Signs"
                  }
                ],
                "code": {
                  "coding": [
                    {
                      "system": "http://loinc.org",
                      "code": "8302-2"
                    },
                    {
                      "system": "http://snomed.info/sct",
                      "code": "248334005"
                    },
                    {
                      "system": "http://snomed.info/sct",
                      "code": "169886007"
                    }
                  ],
                  "text": "Birth Length"
                },
                "subject": {
                  "reference": "Patient/dd78393f-37ca-4738-81d6-d9595b2e5d0f",
                  "display": "Baby of Eve Bill"
                },
                "effectiveDateTime": "2018-12-27T16:13:03Z",
                "performer": [
                  {
                    "reference": "Practitioner/dd78393f-37ca-4738-81d6-d9595b2e5d0d",
                    "display": "Examiner"
                  },
                  {
                    "reference": "Organization/od78393f-37ca-4738-81d6-d9595b2e5d0f",
                    "display": "Organisation"
                  }
                ],
                "valueQuantity": {
                  "value": 25,
                  "unit": "cm",
                  "system": "http://unitsofmeasure.org",
                  "code": "cm"
                }
              }
            }
          ]
        },
        "request": {
          "method": "POST",
          "url": "Binary"
        }
      },
      {
        "request": {
          "method": "GET",
          "url": "Patient/person-who-has-provided-consent"
        }
      }
    ]
  }