{
  "resourceType": "Bundle",
  "id": "ncdhc-bundle-document-create-authrep",
  "identifier": {
    "system": "urn:ietf:rfc:3986",
    "value": "urn:uuid:83c6b096-3038-4ed8-a3c4-7dc55a6869ce"
  },
  "type": "document",
  "entry": [
    {
      "fullUrl": "urn:uuid:37700024-070c-4141-8109-9d9fa34dd24b",
      "resource": {
        "resourceType": "Composition",
        "id": "33d63d08-6c53-4a8c-86e0-b2933472ec3b",
        "meta": {
          "versionId": "1",
          "lastUpdated": "2019-11-05T00:00:00Z",
          "profile": [
            "http://hl7.org.au/fhir/ch/v1/StructureDefinition/ncdhc-composition-rep-registration"
          ]
        },
        "text": {
          "status": "generated",
          "div": "<div xmlns=\"http://www.w3.org/1999/xhtml\"><p><b>Generated Narrative with Details</b></p><p><b>id</b>: 33d63d08-6c53-4a8c-86e0-b2933472ec3b</p><p><b>meta</b>: </p><p><b>status</b>: final</p><p><b>type</b>: Register Representative </p><p><b>title</b>: Register Representative</p><p><b>confidentiality</b>: N</p></div>"
        },
        "status": "final",
        "type": {
          "coding": [
            {
              "system": "http://hl7.org.au/fhir/ch/v1/CodeSystem/ncdhc-hi-type-1",
              "code": "REGREP",
              "display": "Register Representative"
            }
          ],
          "text": "Register Representative"
        },
        "date": "2019-12-16T03:35:02Z",
        "author": [
          {
            "reference": "urn:uuid:3db74777-fd3d-4d3b-92ec-d405977a11a5",
            "display": "GOM Flow"
          }
        ],
        "title": "Register Representative",
        "confidentiality": "N",
        "attester": [
          {
            "mode": "professional",
            "time": "2019-12-16T03:35:02Z",
            "party": {
              "reference": "urn:uuid:od78393f-37ca-4738-81d6-d9595b2e5d0f",
              "display": "NSW Health"
            }
          }
        ],
        "section": [
          {
            "title": "Representative Details",
            "code": {
              "coding": [
                {
                  "system": "http://snomed.info/sct",
                  "code": "184140000"
                }
              ]
            },
            "entry": [
              {
                "reference": "urn:uuid:61ebe359-bfdc-4613-8bf2-c5e300945f0a"
              }
            ]
          },
          {
            "title": "Consent Details",
            "code": {
              "coding": [
                {
                  "system": "http://snomed.info/sct",
                  "code": "721914005"
                }
              ]
            },
            "entry": [
              {
                "reference": "urn:uuid:61ebe359-bfdc-4613-8bf2-c5e300945f0b"
              },
              {
                "reference": "urn:uuid:71ebe359-bfdc-4613-8bf2-c5e300945f0b"
              },
              {
                "reference": "urn:uuid:81ebe359-bfdc-4613-8bf2-c5e300945f0b"
              }
            ]
          }
        ],
        "identifier": {
          "system": "urn:ietf:rfc:3986",
          "value": "urn:uuid:33d63d08-6c53-4a8c-86e0-b2933472ec3b"
        },
        "subject": {
          "reference": "urn:uuid:eb78393f-37ca-4738-81d6-d9595b2e5d0f"
        }
      }
    },
    {
      "fullUrl": "urn:uuid:eb78393f-37ca-4738-81d6-d9595b2e5d0f",
      "resource": {
        "resourceType": "Patient",
        "id": "eb78393f-37ca-4738-81d6-d9595b2e5d0f",
        "meta": {
          "versionId": "1",
          "lastUpdated": "2019-11-05T00:00:00Z",
          "profile": [
            "http://hl7.org.au/fhir/StructureDefinition/au-patient"
          ]
        },
        "text": {
          "status": "generated",
          "div": "<div xmlns=\"http://www.w3.org/1999/xhtml\">Machine Processable Patient Instance</div>"
        }
      }
    },
    {
      "fullUrl": "urn:uuid:61ebe359-bfdc-4613-8bf2-c5e300945f0c",
      "resource": {
        "resourceType": "RelatedPerson",
        "patient": {
          "reference": "urn:uuid:eb78393f-37ca-4738-81d6-d9595b2e5d0f"
        }
      }
    },
    {
      "fullUrl": "urn:uuid:61ebe359-bfdc-4613-8bf2-c5e300945f0a",
      "resource": {
        "resourceType": "Person",
        "text": {
          "status": "generated",
          "div": "<div xmlns=\"http://www.w3.org/1999/xhtml\">Rosie Wagner Registered as Authorised Representative</div>"
        },
        "meta": {
          "versionId": "1",
          "lastUpdated": "2019-11-05T00:00:00Z",
          "profile": [
            "http://hl7.org/fhir/StructureDefinition/Person"
          ]
        },
        "id": "61ebe359-bfdc-4613-8bf2-c5e300945f0a",
        "identifier": [
          {
            "system": "http://schemas.microsoft.com/identity/claims/objectidentifier",
            "value": "c5e4915d-6c7a-4465-99dd-835257f65122"
          }
        ],
        "name": [
          {
            "text": "RosieWagner",
            "family": "Wagner",
            "given": [
              "Rosie"
            ]
          }
        ],
        "telecom": [
          {
            "system": "email",
            "value": "rosie.wagner@gmail.com",
            "use": "home"
          },
          {
            "system": "phone",
            "value": "405898112",
            "use": "mobile"
          }
        ],
        "gender": "female",
        "address": [
          {
            "use": "home",
            "line": [
              "44 Kirkland Dr"
            ],
            "city": "Chatswood",
            "state": "NSW",
            "postalCode": "2025"
          }
        ],
        "active": true
      }
    },
    {
      "fullUrl": "urn:uuid:3db74777-fd3d-4d3b-92ec-d405977a11a5",
      "resource": {
        "resourceType": "Device",
        "id": "3db74777-fd3d-4d3b-92ec-d405977a11a5",
        "meta": {
          "profile": [
            "http://hl7.org.au/fhir/StructureDefinition/au-device"
          ]
        },
        "text": {
          "status": "generated",
          "div": "<div xmlns=\"http://www.w3.org/1999/xhtml\">GOM Flow</div>"
        },
        "version": "v1.0.0",
        "status": "active"
      }
    },
    {
      "fullUrl": "urn:uuid:od78393f-37ca-4738-81d6-d9595b2e5d0f",
      "resource": {
        "resourceType": "Organization",
        "id": "od78393f-37ca-4738-81d6-d9595b2e5d0f",
        "meta": {
          "profile": [
            "http://hl7.org.au/fhir/StructureDefinition/au-organisation"
          ]
        },
        "identifier": [
          {
            "type": {
              "coding": [
                {
                  "system": "http://hl7.org.au/fhir/v2/0203",
                  "code": "NOI",
                  "display": "National Organisation Identifier"
                }
              ],
              "text": "HPI-O"
            },
            "system": "http://ns.electronichealth.net.au/id/hi/hpio/1.0",
            "value": "8003621566684455"
          }
        ],
        "active": true,
        "name": "eHealth NSW"
      }
    },
    {
      "fullUrl": "urn:uuid:61ebe359-bfdc-4613-8bf2-c5e300945f0b",
      "resource": {
        "resourceType": "Consent",
        "text": {
          "status": "generated",
          "div": "<div xmlns=\"http://www.w3.org/1999/xhtml\">NCDHC Authorisation Consent By Auth Rep</div>"
        },
        "status": "active",
        "category": [
          {
            "coding": [
              {
                "system": "http://hl7.org.au/fhir/ch/v1/CodeSystem/ncdhc-consent-category-1",
                "code": "AUTHCONST",
                "display": "NCDHC Authorisation Consent"
              }
            ]
          }
        ],
        "patient": {
          "reference": "urn:uuid:eb78393f-37ca-4738-81d6-d9595b2e5d0f"
        },
        "dateTime": "2019-12-16T03:35:02Z",
        "consentingParty": [
          {
            "reference": "urn:uuid:61ebe359-bfdc-4613-8bf2-c5e300945f0c",
            "display": "Rosie Wagner"
          }
        ],
        "policyRule": "urn:uuid:44847642-b160-4e0b-9ce7-69611bf5b303",
        "meta": {
          "versionId": "1",
          "lastUpdated": "2019-11-05T00:00:00Z",
          "profile": [
            "http://hl7.org.au/fhir/ch/v1/StructureDefinition/ncdhc-consent"
          ]
        },
        "actor": [
          {
            "role": {
              "coding": [
                {
                  "system": "http://hl7.org.au/fhir/ch/v1/CodeSystem/ncdhc-security-role-type-1",
                  "code": "RESPRSN",
                  "display": "Authorised Representative"
                }
              ]
            },
            "reference": {
              "reference": "urn:uuid:61ebe359-bfdc-4613-8bf2-c5e300945f0c",
              "display": "Rosie Wagner"
            }
          }
        ]
      }
    },
    {
      "fullUrl": "urn:uuid:71ebe359-bfdc-4613-8bf2-c5e300945f0b",
      "resource": {
        "resourceType": "Consent",
        "meta": {
          "versionId": "1",
          "lastUpdated": "2019-11-05T00:00:00Z",
          "profile": [
            "http://hl7.org.au/fhir/ch/v1/StructureDefinition/ncdhc-consent"
          ]
        },
        "text": {
          "status": "generated",
          "div": "<div xmlns=\"http://www.w3.org/1999/xhtml\">Child Digital Health Record Operation Consent by Authorised Representative</div>"
        },
        "status": "active",
        "category": [
          {
            "coding": [
              {
                "system": "http://hl7.org.au/fhir/ch/v1/CodeSystem/ncdhc-consent-category-1",
                "code": "CROPT",
                "display": "Child Digital Health Record Operation Consent"
              }
            ]
          }
        ],
        "patient": {
          "reference": "urn:uuid:eb78393f-37ca-4738-81d6-d9595b2e5d0f"
        },
        "dateTime": "2019-12-16T03:35:02Z",
        "consentingParty": [
          {
            "reference": "urn:uuid:61ebe359-bfdc-4613-8bf2-c5e300945f0c",
            "display": "Rosie Wagner"
          }
        ],
        "policyRule": "urn:uuid:44847642-b160-4e0b-9ce7-69611bf5b303"
      }
    },
    {
      "fullUrl": "urn:uuid:81ebe359-bfdc-4613-8bf2-c5e300945f0b",
      "resource": {
        "resourceType": "Consent",
        "meta": {
          "versionId": "1",
          "lastUpdated": "2019-11-05T00:00:00Z",
          "profile": [
            "http://hl7.org.au/fhir/ch/v1/StructureDefinition/ncdhc-consent"
          ]
        },
        "text": {
          "status": "generated",
          "div": "<div xmlns=\"http://www.w3.org/1999/xhtml\">Consent to Interact with My Health Record by Authorised Representative</div>"
        },
        "status": "active",
        "category": [
          {
            "coding": [
              {
                "system": "http://hl7.org.au/fhir/ch/v1/CodeSystem/ncdhc-consent-category-1",
                "code": "MHRINTR",
                "display": "Consent to Interact with My Health Record"
              }
            ]
          }
        ],
        "patient": {
          "reference": "urn:uuid:eb78393f-37ca-4738-81d6-d9595b2e5d0f"
        },
        "dateTime": "2019-12-16T03:35:02Z",
        "consentingParty": [
          {
            "reference": "urn:uuid:61ebe359-bfdc-4613-8bf2-c5e300945f0c",
            "display": "RosieWagner"
          }
        ],
        "policyRule": "urn:uuid:44847642-b160-4e0b-9ce7-69611bf5b303"
      }
    }
  ]
}