{
    "resourceType": "Bundle",
    "id": "ncdhc-estimated-date-birth-document-example",
    "identifier": {
        "system": "urn:ietf:rfc:3986",
        "value": "urn:uuid:301e425c-2be0-443e-8bb6-3b6499d9a17a"
    },
    "type": "document",
    "entry": [
        {
            "fullUrl": "urn:uuid:e4787091-f1b6-42e0-927c-ac8d89984607",
            "resource": {
                "resourceType": "Composition",
                "id": "e4787091-f1b6-42e0-927c-ac8d89984607",
                "meta": {
                    "versionId": "1",
                    "lastUpdated": "2019-12-27T16:13:03Z",
                    "profile": "http://hl7.org.au/fhir/ch/v1/StructureDefinition/ncdhc-composition-estimated-date-birth"
                },
                "status": "final",
                "type": {
                    "coding": [
                        {
                            "system": "http://hl7.org.au/fhir/ch/v1/CodeSystem/ncdhc-hi-type-1",
                            "code": "ANTVSTCLC"
                        }
                    ],
                    "text": "Estimated date of birth"
                },
                "subject": {
                    "reference": "Patient/dd78393f-37ca-4738-81d6-d9595b2e5d0f",
                    "display": "Eve Bill"
                },
                "encounter": {
                    "reference": "urn:uuid:741a72a8-df75-4484-ac89-ac4923f04b42"
                },
                "date": "2019-12-24T12:30:02Z",
                "author": [
                    {
                        "reference": "Practitioner/3db74777-fd3d-4d3b-92ec-d405977a11a5",
                        "display": "Dr. Adam Dev"
                    }
                ],
                "title": "Estimated date of birth",
                "confidentiality": "N",
                "attester": [
                    {
                        "mode": "professional",
                        "time": "2018-12-24T12:30:02Z",
                        "party": {
                            "reference": "Organization/od78393f-37ca-4738-81d6-d9595b2e5d0f"
                        }
                    }
                ]
            }
        },
        {
            "fullUrl": "urn:uuid:dd78393f-37ca-4738-81d6-d9595b2e5d0f",
            "resource": {
                "resourceType": "Patient",
                "id": "dd78393f-37ca-4738-81d6-d9595b2e5d0f",
                "meta": {
                    "versionId": "1",
                    "lastUpdated": "2018-12-27T16:13:03Z",
                    "profile": "http://hl7.org.au/fhir/ch/v1/StructureDefinition/ncdhc-patient-expectant-mother"
                },
                "identifier": [
                    {
                        "type": {
                            "coding": [
                                {
                                    "system": "http://hl7.org/fhir/v2/0203",
                                    "code": "NI",
                                    "display": "National unique individual identifier"
                                }
                            ],
                            "text": "IHI"
                        },
                        "system": "http://ns.electronichealth.net.au/id/hi/ihi/1.0",
                        "value": "8003608000024083"
                    },
                    {
                        "type": {
                            "coding": [
                                {
                                    "system": "http://hl7.org/fhir/v2/0203",
                                    "code": "MR",
                                    "display": "Medical Record Number"
                                }
                            ],
                            "text": "Medical Record Number"
                        },
                        "system": "http://ns.electronichealth.net.au/id/hpio-scoped/medicalrecord/1.0/8003620000000000/02134000",
                        "value": "02134000",
                        "assigner": {
                            "display": "Blacktown Hospital"
                        }
                    }
                ],
                "active": true,
                "name": [
                    {
                        "text": "Eve Bill",
                        "family": "Bill",
                        "given": [
                            "Eve"
                        ]
                    }
                ],
                "gender": "female"
            }
        },
        {
            "fullUrl": "urn:uuid:741a72a8-df75-4484-ac89-ac4923f04b42",
            "resource": {
                "resourceType": "Encounter",
                "contained": [
                    {
                        "resourceType": "Location",
                        "id": "lc78393f-37ca-4738-81d6-d9595b2e5d0f",
                        "status": "active",
                        "name": "Blacktown Hospital"
                    },
                    {
                        "resourceType": "Appointment",
                        "id": "2c78393f-37ca-4738-81d6-d9595b2e5d0f",
                        "status": "proposed",
                        "participant": [
                            {
                                "actor": {
                                    "reference": "Patient/ncdhc-patient-expectant-mother-example"
                                },
                                "required": "required",
                                "status": "accepted"
                            }
                        ],
                        "requestedPeriod": [
                            {
                                "start": "2020-04-23T08:00:00+11:00",
                                "end": "2020-04-23T08:01:00+11:00"
                            }
                        ]
                    }
                ],
                "id": "741a72a8-df75-4484-ac89-ac4923f04b42",
                "meta": {
                    "versionId": "1",
                    "lastUpdated": "2018-12-24T12:30:02Z",
                    "profile": [
                        "http://hl7.org.au/fhir/ch/v1/StructureDefinition/ncdhc-dphr-encounter"
                    ]
                },
                "status": "finished",
                "subject": {
                    "reference": "Patient/ncdhc-patient-expectant-mother-example"
                },
                "participant": [
                    {
                        "type": [
                            {
                                "coding": [
                                    {
                                        "system": "http://hl7.org/fhir/participant-type",
                                        "code": "translator",
                                        "display": "Translator"
                                    }
                                ],
                                "text": "Registered Interpreter"
                            }
                        ],
                        "individual": {
                            "reference": "Practitioner/examiner-practitioner"
                        }
                    },
                    {
                        "type": [
                            {
                                "coding": [
                                    {
                                        "system": "http://hl7.org/fhir/v3/ParticipationType",
                                        "code": "CALLBCK",
                                        "display": "callback contact"
                                    }
                                ],
                                "text": "Clinically responsible person"
                            }
                        ],
                        "individual": {
                            "reference": "Practitioner/examiner-practitioner"
                        }
                    }
                ],
                "appointment": {
                    "reference": "#2c78393f-37ca-4738-81d6-d9595b2e5d0f"
                },
                "period": {
                    "start": "2019-12-23T08:00:00+11:00",
                    "end": "2019-12-23T08:01:00+11:00"
                },
                "serviceProvider": {
                    "reference": "Organization/examiner-organization"
                },
                "location": [
                    {
                        "location": {
                            "reference": "#lc78393f-37ca-4738-81d6-d9595b2e5d0f"
                        }
                    }
                ]
            }
        },
        {
            "fullUrl": "urn:uuid:od78393f-37ca-4738-81d6-d9595b2e5d0f",
            "resource": {
                "resourceType": "Organization",
                "id": "od78393f-37ca-4738-81d6-d9595b2e5d0f",
                "identifier": [
                    {
                        "type": {
                            "coding": [
                                {
                                    "system": "http://hl7.org.au/fhir/v2/0203",
                                    "code": "NOI",
                                    "display": "National Organisation Identifier"
                                }
                            ],
                            "text": "HPI-O"
                        },
                        "system": "http://ns.electronichealth.net.au/id/hi/hpio/1.0",
                        "value": "8003621566684455"
                    }
                ],
                "type": [
                    {
                        "coding": [
                            {
                                "system": "http://hl7.org/fhir/organization-type",
                                "code": "prov",
                                "display": "Healthcare Provider"
                            }
                        ]
                    }
                ],
                "name": "Blacktown Hospital",
                "telecom": [
                    {
                        "system": "email",
                        "value": "enquiries@blacktownhospital.com.au",
                        "use": "work"
                    }
                ]
            }
        },
        {
            "fullUrl": "urn:uuid:3db74777-fd3d-4d3b-92ec-d405977a11a5",
            "resource": {
                "resourceType": "Practitioner",
                "id": "3db74777-fd3d-4d3b-92ec-d405977a11a5",
                "identifier": [
                    {
                        "type": {
                            "coding": [
                                {
                                    "system": "http://hl7.org/fhir/v2/0203",
                                    "code": "NPI",
                                    "display": "National provider identifier"
                                }
                            ],
                            "text": "HPI-I"
                        },
                        "system": "http://ns.electronichealth.net.au/id/hi/hpii/1.0",
                        "value": "8003610833334085"
                    }
                ],
                "active": true,
                "name": [
                    {
                        "family": "Dev",
                        "given": [
                            "Adam"
                        ],
                        "prefix": [
                            "Dr"
                        ]
                    }
                ],
                "qualification": [
                    {
                        "identifier": [
                            {
                                "type": {
                                    "coding": [
                                        {
                                            "system": "http://hl7.org.au/fhir/v2/0203",
                                            "code": "AHPRA",
                                            "display": "Australian Health Practitioner Regulation Agency Registration Number"
                                        }
                                    ],
                                    "text": "AHPRA Registration Number"
                                },
                                "system": "http://hl7.org.au/id/ahpra-registration-number",
                                "value": "MED0000932850"
                            }
                        ],
                        "code": {
                            "coding": [
                                {
                                    "system": "http://www.abs.gov.au/ausstats/abs@.nsf/mf/1220.0",
                                    "code": "254111",
                                    "display": "Midwife"
                                }
                            ],
                            "text": "AHPRA qualification for Midwife"
                        },
                        "issuer": {
                            "display": "AHPRA"
                        }
                    }
                ]
            }
        }
    ]
}