{
  "resourceType": "Bundle",
  "id": "ncdhc-composition-view-birth-sample",
  "meta": {
    "versionId": "1",
    "lastUpdated": "2019-01-01T00:00:00Z"
  },
  "identifier": {
    "system": "urn:ietf:rfc:3986",
    "value": "urn:uuid:0c4151bd-1cbf-4d64-b04d-cd9187a4c6e0"
  },
  "type": "document",
  "entry": [
    {
      "fullUrl": "https://ncdhc.health.gov.au/fhir/v1.0.0/Composition/480f219f-97a8-486d-99d9-ed631fe4fc57",
      "resource": {
        "resourceType": "Composition",
        "id": "480f219f-97a8-486d-99d9-ed631fe4fc57",
        "meta": {
          "versionId": "1",
          "lastUpdated": "2019-05-21T00:00:00Z",
          "profile": "http://hl7.org.au/fhir/ch/v1/StructureDefinition/ncdhc-composition-view-birth"
        },
        "status": "final",
        "type": {
          "coding": [
            {
              "system": "http://hl7.org.au/fhir/ch/v1/CodeSystem/ncdhc-hi-type",
              "code": "BIRTHCONVW"
            }
          ],
          "text": "NCDHC Birth Consolidated view"
        },
        "subject": {
          "reference": "https://ncdhc.health.gov.au/fhir/v1.0.0/Patient/dd78393f-37ca-4738-81d6-d9595b2e5d0f",
          "display": "Baby of Eve Bill"
        },
        "date": "2018-12-24T12:30:02Z",
        "author": [
          {
            "reference": "https://ncdhc.health.gov.au/fhir/v1.0.0/Device/3db74777-fd3d-4d3b-92ec-d405977a11a5",
            "display": "Child Data Hub"
          }
        ],
        "title": "NCDHC Birth Consolidated view",
        "confidentiality": "N",
        "attester": [
          {
            "mode": "professional",
            "time": "2018-12-24T12:30:02Z",
            "party": {
              "reference": "https://ncdhc.health.gov.au/fhir/v1.0.0/Organization/od78393f-37ca-4738-81d6-d9595b2e5d0f"
            }
          }
        ],
        "section": [
          {
            "title": "Newborn Delivery",
            "code": {
              "coding": [
                {
                  "system": "http://loinc.org",
                  "code": "67795-5"
                }
              ]
            },
            "entry": [
              {
                "reference": "https://ncdhc.health.gov.au/fhir/v1.0.0/QuestionnaireResponse/nb-delivery-qa-1"
              }
            ]
          }
        ]
      }
    },
    {
      "fullUrl": "https://ncdhc.health.gov.au/fhir/v1.0.0/Patient/dd78393f-37ca-4738-81d6-d9595b2e5d0f",
      "resource": {
        "resourceType": "Patient",
        "text": {
          "status": "generated",
          "div": "<div xmlns=\"http://www.w3.org/1999/xhtml\">\n\t\t\t\t\t\t\n<h1>Baby of Eve Bill</h1>\n\t\t\t\t\t\n</div>"
        },
        "id": "dd78393f-37ca-4738-81d6-d9595b2e5d0f",
        "meta": {
          "versionId": "1",
          "lastUpdated": "2018-12-27T16:13:03Z",
          "profile": "http://hl7.org.au/fhir/ch/v1/StructureDefinition/ncdhc-patient"
        },
        "extension": [
          {
            "url": "http://hl7.org/fhir/StructureDefinition/birthPlace",
            "valueAddress": {
              "text": "Blacktown Hospital"
            }
          }
        ],
        "identifier": [
          {
            "type": {
              "coding": [
                {
                  "system": "http://hl7.org/fhir/v2/0203",
                  "code": "NI",
                  "display": "National unique individual identifier"
                }
              ],
              "text": "IHI"
            },
            "system": "http://ns.electronichealth.net.au/id/hi/ihi/1.0",
            "value": "8003608000024083"
          },
          {
            "type": {
              "coding": [
                {
                  "system": "http://hl7.org/fhir/v2/0203",
                  "code": "MR",
                  "display": "Medical Record Number"
                }
              ],
              "text": "Medical Record Number"
            },
            "system": "http://ns.electronichealth.net.au/id/hpio-scoped/medicalrecord/1.0",
            "value": "8003620000000000",
            "assigner": {
              "display": "Blacktown Hospital"
            }
          }
        ],
        "active": true,
        "name": [
          {
            "text": "Baby of Eve Bill",
            "family": "Bill",
            "given": [
              "Baby of Eve"
            ]
          }
        ],
        "gender": "female",
        "birthDate": "2018-12-24",
        "_birthDate": {
          "extension": [
            {
              "url": "http://hl7.org/fhir/StructureDefinition/patient-birthTime",
              "valueDateTime": "2018-12-24T14:35:45-05:00"
            }
          ]
        },
        "address": [
          {
            "text": "home",
            "line": [
              "31 Pacquola Street"
            ],
            "city": "Blacktown",
            "state": "NSW",
            "postalCode": "2148",
            "country": "Australia"
          }
        ],
        "contact": [
          {
            "relationship": [
              {
                "coding": [
                  {
                    "system": "http://hl7.org/fhir/v3/RoleCode",
                    "code": "MTH",
                    "display": "mother"
                  }
                ],
                "text": "Mother"
              }
            ],
            "name": {
              "text": "Eve Bill",
              "family": "Bill",
              "given": [
                "Eve"
              ]
            }
          },
          {
            "relationship": [
              {
                "coding": [
                  {
                    "system": "http://hl7.org/fhir/v3/RoleCode",
                    "code": "FTH",
                    "display": "father"
                  }
                ],
                "text": "Father"
              }
            ],
            "name": {
              "text": "Simmons Bill",
              "family": "Bill",
              "given": [
                "Simmons"
              ]
            }
          }
        ]
      }
    },
    {
      "fullUrl": "https://ncdhc.health.gov.au/fhir/v1.0.0/Organization/od78393f-37ca-4738-81d6-d9595b2e5d0f",
      "resource": {
        "resourceType": "Organization",
        "id": "od78393f-37ca-4738-81d6-d9595b2e5d0f",
        "text": {
          "status": "generated",
          "div": "<div xmlns=\"http://www.w3.org/1999/xhtml\"><p><b>Generated Narrative with Details</b></p><p><b>id</b>: od78393f-37ca-4738-81d6-d9595b2e5d0f</p><p><b>identifier</b>: ABN = 51824753556</p><p><b>type</b>: Healthcare Provider <span style=\"background: LightGoldenRodYellow\">(Details : {http://hl7.org/fhir/organization-type code 'prov' = 'Healthcare Provider', given as 'Healthcare Provider'})</span></p><p><b>name</b>: Blacktown Hospital</p><p><b>telecom</b>: enquiries@blacktownhospital.com.au(WORK)</p></div>"
        },
        "identifier": [
          {
            "type": {
              "text": "ABN"
            },
            "system": "http://hl7.org.au/id/abn",
            "value": "51824753556"
          }
        ],
        "type": [
          {
            "coding": [
              {
                "system": "http://hl7.org/fhir/organization-type",
                "code": "prov",
                "display": "Healthcare Provider"
              }
            ]
          }
        ],
        "name": "Blacktown Hospital",
        "telecom": [
          {
            "system": "email",
            "value": "enquiries@blacktownhospital.com.au",
            "use": "work"
          }
        ]
      }
    },
    {
      "fullUrl": "https://ncdhc.health.gov.au/fhir/v1.0.0/Practitioner/3db74777-fd3d-4d3b-92ec-d405977a11a5",
      "resource": {
        "resourceType": "Practitioner",
        "id": "3db74777-fd3d-4d3b-92ec-d405977a11a5",
        "meta": {
          "versionId": "1",
          "lastUpdated": "2018-12-27T16:13:03Z"
        },
        "text": {
          "status": "generated",
          "div": "<div xmlns=\"http://www.w3.org/1999/xhtml\">\n\t\t\t\t\t\t\n<p>Dr Adam Dev</p>\n\t\t\t\t\t\n</div>"
        },
        "identifier": [
          {
            "type": {
              "coding": [
                {
                  "system": "http://hl7.org/fhir/v2/0203",
                  "code": "NPI",
                  "display": "National provider identifier"
                }
              ],
              "text": "HPI-I"
            },
            "system": "http://ns.electronichealth.net.au/id/hi/hpii/1.0",
            "value": "8003610833334085"
          }
        ],
        "active": true,
        "name": [
          {
            "family": "Dev",
            "given": [
              "Adam"
            ],
            "prefix": [
              "Dr"
            ]
          }
        ],
        "qualification": [
          {
            "identifier": [
              {
                "type": {
                  "coding": [
                    {
                      "system": "http://hl7.org.au/fhir/v2/0203",
                      "code": "AHPRA",
                      "display": "Australian Health Practitioner Regulation Agency Registration Number"
                    }
                  ],
                  "text": "AHPRA Registration number"
                },
                "system": "http://hl7.org.au/id/ahpra-registration-number",
                "value": "MED0000932850"
              }
            ],
            "code": {
              "coding": [
                {
                  "system": "http://www.abs.gov.au/ausstats/abs@.nsf/mf/1220.0",
                  "code": "254111",
                  "display": "Midwife"
                }
              ],
              "text": "AHPRA qualification for Midwife"
            },
            "issuer": {
              "display": "AHPRA"
            }
          }
        ]
      }
    },
    {
      "fullUrl": "https://ncdhc.health.gov.au/fhir/v1.0.0/Practitioner/dd78393f-37ca-4738-81d6-d9595b2e5d0d",
      "resource": {
        "resourceType": "Practitioner",
        "id": "dd78393f-37ca-4738-81d6-d9595b2e5d0d",
        "text": {
          "status": "generated",
          "div": "<div xmlns=\"http://www.w3.org/1999/xhtml\"><p><b>Generated Narrative with Details</b></p><p><b>id</b>: dd78393f-37ca-4738-81d6-d9595b2e5d0d</p><p><b>identifier</b>: HPI-I = 8003611234567893</p><p><b>name</b>: Dr. Carla Smith </p><h3>Qualifications</h3><table class=\"grid\"><tr><td>-</td><td><b>Identifier</b></td><td><b>Code</b></td><td><b>Issuer</b></td></tr><tr><td>*</td><td>AHPRA Registration number = MED0000932850</td><td>AHPRA qualification for General Practitioner <span style=\"background: LightGoldenRodYellow\">(Details : {http://www.abs.gov.au/ausstats/abs@.nsf/mf/1220.0 code '253111' = '253111', given as 'General Medical Practitioner'})</span></td><td>AHPRA</td></tr></table></div>"
        },
        "identifier": [
          {
            "type": {
              "coding": [
                {
                  "system": "http://hl7.org/fhir/v2/0203",
                  "code": "NPI",
                  "display": "National provider identifier"
                }
              ],
              "text": "HPI-I"
            },
            "system": "http://ns.electronichealth.net.au/id/hi/hpii/1.0",
            "value": "8003611234567893"
          }
        ],
        "name": [
          {
            "family": "Carla",
            "given": [
              "Smith"
            ],
            "prefix": [
              "Dr"
            ]
          }
        ],
        "qualification": [
          {
            "identifier": [
              {
                "type": {
                  "coding": [
                    {
                      "system": "http://hl7.org.au/fhir/v2/0203",
                      "code": "AHPRA",
                      "display": "Australian Health Practitioner Regulation Agency Registration Number"
                    }
                  ],
                  "text": "AHPRA Registration number"
                },
                "system": "http://hl7.org.au/id/ahpra-registration-number",
                "value": "MED0000932850"
              }
            ],
            "code": {
              "coding": [
                {
                  "system": "http://www.abs.gov.au/ausstats/abs@.nsf/mf/1220.0",
                  "code": "253111",
                  "display": "General Medical Practitioner"
                }
              ],
              "text": "AHPRA qualification for General Practitioner"
            },
            "issuer": {
              "display": "AHPRA"
            }
          }
        ]
      }
    },
    {
      "fullUrl": "https://ncdhc.health.gov.au/fhir/v1.0.0/QuestionnaireResponse/nb-delivery-qa-1",
      "resource": {
        "resourceType": "QuestionnaireResponse",
        "id": "nb-delivery-qa-1",
        "questionnaire": {
          "reference": "Questionnaire/nb-delivery-q-en-s1",
          "display": "Birth Questionnaire"
        },
        "status": "completed",
        "subject": {
          "reference": "http://hl7.org/fhir/Patient/dd78393f-37ca-4738-81d6-d9595b2e5d0f"
        },
        "item": [
          {
            "linkId": "1",
            "text": "Facility / Location",
            "item": [
              {
                "linkId": "1.1",
                "text": "value",
                "answer": [
                  {
                    "valueString": "Blacktown Hospital"
                  }
                ]
              },
              {
                "linkId": "1.2",
                "text": "link",
                "answer": [
                  {
                    "valueReference": {
                      "reference": "Patient/dd78393f-37ca-4738-81d6-d9595b2e5d0f"
                    }
                  }
                ]
              }
            ]
          },
          {
            "linkId": "2",
            "text": "Birth Date / Time",
            "item": [
              {
                "linkId": "2.1",
                "text": "value",
                "answer": [
                  {
                    "valueDateTime": "2018-01-07T17:42:21z"
                  }
                ]
              },
              {
                "linkId": "2.2",
                "text": "link",
                "answer": [
                  {
                    "valueReference": {
                      "reference": "Patient/dd78393f-37ca-4738-81d6-d9595b2e5d0f"
                    }
                  }
                ]
              }
            ]
          },
          {
            "linkId": "3",
            "text": "Sex",
            "item": [
              {
                "linkId": "3.1",
                "text": "value",
                "answer": [
                  {
                    "valueCoding": {
                      "system": "http://hl7.org/fhir/administrative-gender",
                      "code": "female",
                      "display": "Female"
                    }
                  }
                ]
              },
              {
                "linkId": "3.2",
                "text": "link",
                "answer": [
                  {
                    "valueReference": {
                      "reference": "Patient/dd78393f-37ca-4738-81d6-d9595b2e5d0f"
                    }
                  }
                ]
              }
            ]
          },
          {
            "linkId": "4",
            "text": "Estimated Gestation",
            "item": [
              {
                "linkId": "4.1",
                "text": "value",
                "answer": [
                  {
                    "valueQuantity": {
                      "value": 41.5,
                      "unit": "week",
                      "system": "http://unitsofmeasure.org",
                      "code": "wk"
                    }
                  }
                ]
              },
              {
                "linkId": "4.2",
                "text": "link",
                "answer": [
                  {
                    "valueReference": {
                      "reference": "Observation/241a72a8-df75-4484-ac89-ac4923f03b42"
                    }
                  }
                ]
              }
            ]
          },
          {
            "linkId": "5",
            "text": "Type of Birth",
            "item": [
              {
                "linkId": "5.1",
                "text": "value",
                "answer": [
                  {
                    "valueCoding": {
                      "system": "http://snomed.info/sct",
                      "code": "289259007",
                      "display": "Vaginal delivery"
                    }
                  }
                ]
              },
              {
                "linkId": "5.2",
                "text": "link",
                "answer": [
                  {
                    "valueReference": {
                      "reference": "Observation/641a72a8-df75-4484-ac89-ac4923f03b41"
                    }
                  }
                ]
              }
            ]
          },
          {
            "linkId": "6",
            "text": "Labour Initiation",
            "item": [
              {
                "linkId": "6.1",
                "text": "value",
                "answer": [
                  {
                    "valueCoding": {
                      "system": "http://snomed.info/sct",
                      "code": "84457005",
                      "display": "Spontaneous onset of labor"
                    }
                  }
                ]
              },
              {
                "linkId": "6.2",
                "text": "link",
                "answer": [
                  {
                    "valueReference": {
                      "reference": "Observation/641a72a8-df75-4l484-ac89-ac4923f03b42"
                    }
                  }
                ]
              }
            ]
          },
          {
            "linkId": "7",
            "text": "Pregnancy Complications",
            "item": [
              {
                "linkId": "7.2",
                "text": "text",
                "answer": [
                  {
                    "valueString": "Not applicable"
                  }
                ]
              },
              {
                "linkId": "7.3",
                "text": "link",
                "answer": [
                  {
                    "valueReference": {
                      "reference": "Observation/541a72a8-df75-4484-ac89-ac4923f03b53"
                    }
                  }
                ]
              }
            ]
          },
          {
            "linkId": "8",
            "text": "Abnormalities Noted",
            "item": [
              {
                "linkId": "8.2",
                "text": "text",
                "answer": [
                  {
                    "valueString": "Not applicable"
                  }
                ]
              },
              {
                "linkId": "8.3",
                "text": "link",
                "answer": [
                  {
                    "valueReference": {
                      "reference": "Observation/841a72a8-df75-4484-ac89-ac4923f03b42"
                    }
                  }
                ]
              }
            ]
          },
          {
            "linkId": "9",
            "text": "Birth Complications",
            "item": [
              {
                "linkId": "9.2",
                "text": "text",
                "answer": [
                  {
                    "valueString": "Not applicable"
                  }
                ]
              },
              {
                "linkId": "9.3",
                "text": "link",
                "answer": [
                  {
                    "valueReference": {
                      "reference": "Observation/541a72a8-df75-4484-ac89-ac4923f03b52"
                    }
                  }
                ]
              }
            ]
          },
          {
            "linkId": "10",
            "text": "APGAR",
            "item": [
              {
                "linkId": "10.1",
                "text": "1 minute",
                "item": [
                  {
                    "linkId": "10.1.1",
                    "text": "value",
                    "answer": [
                      {
                        "valueQuantity": {
                          "value": 9,
                          "system": "http://unitsofmeasure.org",
                          "code": "{score}"
                        }
                      }
                    ]
                  },
                  {
                    "linkId": "10.1.2",
                    "text": "link",
                    "answer": [
                      {
                        "valueReference": {
                          "reference": "Observation/901a72a8-df75-4484-ac89-ac4923f03b01"
                        }
                      }
                    ]
                  }
                ]
              }
            ]
          },
          {
            "linkId": "11",
            "text": "Birth Weight",
            "item": [
              {
                "linkId": "11.1",
                "text": "text",
                "answer": [
                  {
                    "valueQuantity": {
                      "value": 4140,
                      "unit": "g",
                      "system": "http://unitsofmeasure.org",
                      "code": "g"
                    }
                  }
                ]
              },
              {
                "linkId": "11.3",
                "text": "link",
                "answer": [
                  {
                    "valueReference": {
                      "reference": "Observation/741a72a8-df75-4484-ac89-ac4923f03b44"
                    }
                  }
                ]
              }
            ]
          },
          {
            "linkId": "12",
            "text": "Birth Length",
            "item": [
              {
                "linkId": "12.1",
                "text": "text",
                "answer": [
                  {
                    "valueQuantity": {
                      "value": 51.5,
                      "unit": "cm",
                      "system": "http://unitsofmeasure.org",
                      "code": "cm"
                    }
                  }
                ]
              },
              {
                "linkId": "12.3",
                "text": "link",
                "answer": [
                  {
                    "valueReference": {
                      "reference": "Observation/541a72a8-df75-4484-ac89-ac4923f03b42"
                    }
                  }
                ]
              }
            ]
          },
          {
            "linkId": "13",
            "text": "Head Circumference",
            "item": [
              {
                "linkId": "13.1",
                "text": "text",
                "answer": [
                  {
                    "valueQuantity": {
                      "value": 34.5,
                      "unit": "cm",
                      "system": "http://unitsofmeasure.org",
                      "code": "cm"
                    }
                  }
                ]
              },
              {
                "linkId": "13.3",
                "text": "link",
                "answer": [
                  {
                    "valueReference": {
                      "reference": "Observation/541a72a8-df75-4484-ac89-ac4923f03b47"
                    }
                  }
                ]
              }
            ]
          },
          {
            "linkId": "14",
            "text": "Vitamin K",
            "item": [
              {
                "linkId": "14.1",
                "text": "Vitamin K1",
                "item": [
                  {
                    "linkId": "14.1.1",
                    "text": "date",
                    "answer": [
                      {
                        "valueDateTime": "2019-01-01T00:00:00Z"
                      }
                    ]
                  },
                  {
                    "linkId": "14.1.2",
                    "text": "text",
                    "answer": [
                      {
                        "valueString": "Given"
                      }
                    ]
                  },
                  {
                    "linkId": "14.1.3",
                    "text": "link",
                    "answer": [
                      {
                        "valueReference": {
                          "reference": "MedicationStatement/141a72a8-df75-4484-ac89-ac4923f03b10"
                        }
                      }
                    ]
                  }
                ]
              }
            ]
          },
          {
            "linkId": "15",
            "text": "HepB Immunoglobin",
            "item": [
              {
                "linkId": "15.1",
                "text": "date",
                "answer": [
                  {
                    "valueDateTime": "2019-01-01T00:00:00Z"
                  }
                ]
              },
              {
                "linkId": "15.2",
                "text": "text",
                "answer": [
                  {
                    "valueString": "Given"
                  }
                ]
              },
              {
                "linkId": "15.3",
                "text": "link",
                "answer": [
                  {
                    "valueReference": {
                      "reference": "Observation/hepb-immunoglobin"
                    }
                  }
                ]
              }
            ]
          },
          {
            "linkId": "16",
            "text": "HepB Immunisation",
            "item": [
              {
                "linkId": "16.1",
                "text": "date",
                "answer": [
                  {
                    "valueDateTime": "2019-01-01T00:00:00Z"
                  }
                ]
              },
              {
                "linkId": "16.2",
                "text": "text",
                "answer": [
                  {
                    "valueString": "Given"
                  }
                ]
              },
              {
                "linkId": "16.3",
                "text": "link",
                "answer": [
                  {
                    "valueReference": {
                      "reference": "Observation/hepb-immunisation"
                    }
                  }
                ]
              }
            ]
          }
        ]
      }
    }
  ]
}