{
  "resourceType": "Bundle",
  "id": "ncdhc-bundle-transaction-hca-4-9-request-payload",
  "type": "transaction",
  "entry": [
    {
      "fullUrl": "urn:uuid:61ebe359-bfdc-4613-8bf2-c5e300945f0a",
      "resource": {
        "resourceType": "Bundle",
        "id": "ncdhc-hca-payload-4-9m",
        "identifier": {
          "system": "urn:ietf:rfc:3986",
          "value": "urn:uuid:0c4151bd-1cbf-4d64-b04d-cd9187a4c6e0"
        },
        "type": "document",
        "entry": [
          {
            "resource": {
              "resourceType": "Composition",
              "id": "0eae70a2-692e-43b3-af0e-c10e4462fc3e",
              "meta": {
                "versionId": "1",
                "lastUpdated": "2019-12-11T14:36:03Z",
                "profile": [
                  "http://hl7.org.au/fhir/ch/v1/StructureDefinition/ncdhc-composition-health-check-assessment"
                ]
              },
              "status": "final",
              "type": {
                "coding": [
                  {
                    "system": "http://hl7.org.au/fhir/ch/v1/CodeSystem/ncdhc-hi-type-1",
                    "code": "HEALTHCKASSMT49M",
                    "display": "Health Check Assessment 4-9 months"
                  }
                ]
              },
              "class": {
                "coding": [
                  {
                    "system": "http://hl7.org.au/fhir/ch/v1/CodeSystem/ncdhc-document-class-1",
                    "code": "HEALTHCKASSMT",
                    "display": "Health Check Assessment"
                  }
                ]
              },
              "subject": {
                "reference": "urn:uuid:43140538-3e2a-486b-8993-aab0e8d5c20a"
              },
              "encounter": {
                "reference": "urn:uuid:03140538-3e2a-486b-8993-aab0e8d5c20a"
              },
              "title": "Health Check Assessment Health Interaction",
              "date": "2019-11-21T05:48:51.346Z",
              "author": [
                {
                  "reference": "urn:uuid:b763b0ba-079e-4276-b527-7f1b30271243"
                }
              ],
              "attester": [
                {
                  "mode": [
                    "professional"
                  ],
                  "party": {
                    "reference": "urn:uuid:b763b0ba-079e-4276-b527-7f1b30271243"
                  }
                }
              ],
              "custodian": {
                "reference": "urn:uuid:21b0b1aa-d525-4046-a0a2-df928df48d39"
              },
              "section": [
                {
                  "title": "Vital Signs and Measurements",
                  "code": {
                    "coding": [
                      {
                        "system": "http://loinc.org",
                        "code": "67795-5"
                      }
                    ]
                  },
                  "entry": [
                    {
                      "reference": "urn:uuid:703736eb-1b26-4057-802f-b19e6c43c258"
                    },
                    {
                      "reference": "urn:uuid:ceb9d0d0-5f43-4ac4-89ea-f0d8570c813c"
                    },
                    {
                      "reference": "urn:uuid:28e1a18c-b033-4431-91d6-d75ca172e9ea"
                    }
                  ]
                },
                {
                  "title": "Health conditions section",
                  "code": {
                    "coding": [
                      {
                        "system": "http://loinc.org",
                        "code": "46030-3"
                      }
                    ]
                  },
                  "entry": [
                    {
                      "reference": "urn:uuid:b238ee16-acba-4801-ac00-206b7fa3f8b4"
                    },
                    {
                      "reference": "urn:uuid:c7e73b0b-6442-4767-942c-bb43e3a7a91f"
                    },
                    {
                      "reference": "urn:uuid:568532d3-b0f2-4f8f-8ac7-ee93a117da2a"
                    },
                    {
                      "reference": "urn:uuid:57b86502-eb2d-41bf-b1f5-62d8573d3dc1"
                    },
                    {
                      "reference": "urn:uuid:122af9a5-3128-4047-8787-77c591e9a067"
                    },
                    {
                      "reference": "urn:uuid:9524a461-1348-4689-a0ed-a14954462de5"
                    },
                    {
                      "reference": "urn:uuid:f78dc491-57e3-479d-a949-6fc4f1821f42"
                    },
                    {
                      "reference": "urn:uuid:4efe2ae1-eeda-4938-80fc-91c399d4cfbe"
                    },
                    {
                      "reference": "urn:uuid:929625a7-e26e-4661-8368-a593579bfad1"
                    },
                    {
                      "reference": "urn:uuid:fb5f551f-4964-40fb-976e-abadc30d62ce"
                    },
                    {
                      "reference": "urn:uuid:3f3e0d50-72da-4dd2-8a54-7fb088f707c9"
                    },
                    {
                      "reference": "urn:uuid:eb85bbef-9cbb-4611-a942-db39385fe661"
                    },
                    {
                      "reference": "urn:uuid:18eb3151-1d84-4f8e-9e2c-3fa984020324"
                    }
                  ]
                }
              ]
            },
            "fullUrl": "urn:uuid:0eae70a2-692e-43b3-af0e-c10e4462fc3e"
          },
          {
            "fullUrl": "urn:uuid:03140538-3e2a-486b-8993-aab0e8d5c20a",
            "resource": {
              "resourceType": "Encounter",
              "contained": [
                {
                  "resourceType": "Location",
                  "id": "lc78393f-37ca-4738-81d6-d9595b2e5d0f",
                  "status": "active",
                  "name": "Blacktown Hospital"
                }
              ],
              "id": "ncdhc-encounter-example",
              "meta": {
                "versionId": "1",
                "lastUpdated": "2019-11-19T00:00:00Z",
                "profile": "http://hl7.org.au/fhir/ch/v1/StructureDefinition/ncdhc-encounter"
              },
              "text": {
                "status": "generated",
                "div": "<div xmlns=\"http://www.w3.org/1999/xhtml\"><p><b>Sample Encounter</b></p></div>"
              },
              "status": "finished",
              "subject": {
                "reference": "Patient/patient-baby-example"
              },
              "participant": [
                {
                  "type": [
                    {
                      "coding": [
                        {
                          "system": "http://hl7.org/fhir/v3/ParticipationType",
                          "code": "CALLBCK",
                          "display": "callback contact"
                        }
                      ],
                      "text": "Clinically responsible person"
                    }
                  ],
                  "individual": {
                    "reference": "Practitioner/examiner-practitioner"
                  }
                }
              ],
              "period": {
                "start": "2019-11-17T16:00:00+10:00",
                "end": "2019-11-17T16:00:00+10:00"
              },
              "serviceProvider": {
                "reference": "Organization/examiner-organization"
              },
              "location": [
                {
                  "location": {
                    "reference": "#lc78393f-37ca-4738-81d6-d9595b2e5d0f"
                  }
                }
              ]
            }
          },
          {
            "resource": {
              "resourceType": "Patient",
              "text": {
                "status": "generated",
                "div": "<div xmlns=\"http://www.w3.org/1999/xhtml\">\n\t\t\t\t\t\t\n<h1>Baby of Eve Bill</h1>\n\t\t\t\t\t\n</div>"
              },
              "id": "43140538-3e2a-486b-8993-aab0e8d5c20a",
              "meta": {
                "versionId": "1",
                "lastUpdated": "2018-12-27T16:13:03Z",
                "profile": "http://hl7.org.au/fhir/ch/v1/StructureDefinition/ncdhc-patient-baby"
              },
              "extension": [
                {
                  "url": "http://hl7.org/fhir/StructureDefinition/birthPlace",
                  "valueAddress": {
                    "text": "Blacktown Hospital"
                  }
                }
              ],
              "identifier": [
                {
                  "type": {
                    "coding": [
                      {
                        "system": "http://hl7.org/fhir/v2/0203",
                        "code": "NI",
                        "display": "National unique individual identifier"
                      }
                    ],
                    "text": "IHI"
                  },
                  "system": "http://ns.electronichealth.net.au/id/hi/ihi/1.0",
                  "value": "8003608000024083"
                },
                {
                  "type": {
                    "coding": [
                      {
                        "system": "http://hl7.org/fhir/v2/0203",
                        "code": "MR",
                        "display": "Medical Record Number"
                      }
                    ],
                    "text": "Medical Record Number"
                  },
                  "system": "http://ns.electronichealth.net.au/id/hpio-scoped/medicalrecord/1.0",
                  "value": "8003620000000000",
                  "assigner": {
                    "display": "Blacktown Hospital"
                  }
                }
              ],
              "active": true,
              "name": [
                {
                  "text": "Baby of Eve Bill",
                  "family": "Bill",
                  "given": [
                    "Baby of Eve"
                  ]
                }
              ],
              "gender": "female",
              "birthDate": "2018-12-24",
              "_birthDate": {
                "extension": [
                  {
                    "url": "http://hl7.org/fhir/StructureDefinition/patient-birthTime",
                    "valueDateTime": "2018-12-24T14:35:45-05:00"
                  }
                ]
              },
              "address": [
                {
                  "text": "home",
                  "line": [
                    "31 Pacquola Street"
                  ],
                  "city": "Blacktown",
                  "state": "NSW",
                  "postalCode": "2148",
                  "country": "Australia"
                }
              ],
              "contact": [
                {
                  "relationship": [
                    {
                      "coding": [
                        {
                          "system": "http://hl7.org/fhir/v3/RoleCode",
                          "code": "MTH",
                          "display": "mother"
                        }
                      ],
                      "text": "Mother"
                    }
                  ],
                  "name": {
                    "text": "Eve Bill",
                    "family": "Bill",
                    "given": [
                      "Eve"
                    ]
                  }
                },
                {
                  "relationship": [
                    {
                      "coding": [
                        {
                          "system": "http://hl7.org/fhir/v3/RoleCode",
                          "code": "FTH",
                          "display": "father"
                        }
                      ],
                      "text": "Father"
                    }
                  ],
                  "name": {
                    "text": "Simmons Bill",
                    "family": "Bill",
                    "given": [
                      "Simmons"
                    ]
                  }
                }
              ]
            },
            "fullUrl": "urn:uuid:43140538-3e2a-486b-8993-aab0e8d5c20a"
          },
          {
            "resource": {
              "resourceType": "Organization",
              "id": "21b0b1aa-d525-4046-a0a2-df928df48d39",
              "text": {
                "status": "generated",
                "div": "<div xmlns=\"http://www.w3.org/1999/xhtml\"><p><b>Generated Narrative with Details</b></p><p><b>id</b>: od78393f-37ca-4738-81d6-d9595b2e5d0f</p><p><b>identifier</b>: ABN = 51824753556</p><p><b>type</b>: Healthcare Provider <span style=\"background: LightGoldenRodYellow\">(Details : {http://hl7.org/fhir/organization-type code 'prov' = 'Healthcare Provider', given as 'Healthcare Provider'})</span></p><p><b>name</b>: Blacktown Hospital</p><p><b>telecom</b>: enquiries@blacktownhospital.com.au(WORK)</p></div>"
              },
              "identifier" : [
                {
                  "type" : {
                    "coding" : [
                      {
                        "system" : "http://hl7.org.au/fhir/v2/0203",
                        "code" : "NOI",
                        "display" : "National Organisation Identifier"
                      }
                    ],
                    "text" : "HPI-O"
                  },
                  "system" : "http://ns.electronichealth.net.au/id/hi/hpio/1.0",
                  "value" : "8003621566684455"
                }
              ],
              "type": [
                {
                  "coding": [
                    {
                      "system": "http://hl7.org/fhir/organization-type",
                      "code": "prov",
                      "display": "Healthcare Provider"
                    }
                  ]
                }
              ],
              "name": "Blacktown Hospital",
              "telecom": [
                {
                  "system": "email",
                  "value": "enquiries@blacktownhospital.com.au",
                  "use": "work"
                }
              ]
            },
            "fullUrl": "urn:uuid:21b0b1aa-d525-4046-a0a2-df928df48d39"
          },
          {
            "resource": {
              "resourceType": "Practitioner",
              "id": "b763b0ba-079e-4276-b527-7f1b30271243",
              "meta": {
                "versionId": "1",
                "lastUpdated": "2019-12-11T14:36:03Z",
                "profile": [
                  "http://hl7.org.au/fhir/StructureDefinition/au-practitioner"
                ]
              },
              "active": true,
              "identifier": [
                {
                  "type": {
                    "text": "HPI-I",
                    "coding": [
                      {
                        "system": "http://terminology.hl7.org/CodeSystem/v2-0203",
                        "code": "NPI"
                      }
                    ]
                  },
                  "system": "http://ns.electronichealth.net.au/id/hi/hpii/1.0",
                  "value": "8003619900015717"
                }
              ],
              "name": [
                {
                  "use": "usual",
                  "family": "TESTER",
                  "given": [
                    "TERRY"
                  ]
                }
              ]
            },
            "fullUrl": "urn:uuid:b763b0ba-079e-4276-b527-7f1b30271243"
          },
          {
            "resource": {
              "id": "703736eb-1b26-4057-802f-b19e6c43c258",
              "meta": {
                "versionId": "1",
                "lastUpdated": "2019-12-11T14:36:03Z",
                "profile": [
                  "http://hl7.org.au/fhir/ch/v1/StructureDefinition/ncdhc-observation-vitalsign-bodyweight"
                ]
              },
              "resourceType": "Observation",
              "status": "final",
              "category" : [
                {
                  "coding" : [
                    {
                      "system": "http://hl7.org/fhir/observation-category",
                      "code": "vital-signs",
                      "display": "Vital Signs"
                    }
                  ],
                  "text" : "Vital Signs"
                }
              ],
              "code": {
                "text": "Weight",
                "coding": [
                  {
                    "system": "http://loinc.org",
                    "code": "29463-7",
                    "display": "Body weight"
                  },
                  {
                    "system": "http://snomed.info/sct",
                    "code": "27113001",
                    "display": "Body weight"
                  },
                  {
                    "system" : "http://snomed.info/sct",
                    "code" : "364589006",
                    "display" : "Birth weight"
                  }
                ]
              },
              "effectiveDateTime": "2019-11-21",
              "performer": [
                {
                  "reference": "urn:uuid:b763b0ba-079e-4276-b527-7f1b30271243",
                  "display": "Examiner"
                },
                {
                  "reference": "urn:uuid:21b0b1aa-d525-4046-a0a2-df928df48d39",
                  "display": "Organisation"
                }
              ],
              "comment": "comment1",
              "interpretation": {
                "text": "Normal",
                "coding": [
                  {
                    "code": "17621005",
                    "system": "http://snomed.info/sct",
                    "display": "Normal"
                  }
                ]
              },
              "valueQuantity": {
                "value": 5.6,
                "unit": "kg",
                "code": "kg",
                "system": "http://unitsofmeasure.org"
              },
              "subject": {
                "reference": "urn:uuid:43140538-3e2a-486b-8993-aab0e8d5c20a"
              }
            },
            "fullUrl": "urn:uuid:703736eb-1b26-4057-802f-b19e6c43c258"
          },
          {
            "resource": {
              "id": "ceb9d0d0-5f43-4ac4-89ea-f0d8570c813c",
              "meta": {
                "versionId": "1",
                "lastUpdated": "2019-12-11T14:36:03Z",
                "profile": [
                  "http://hl7.org.au/fhir/ch/v1/StructureDefinition/ncdhc-observation-vitalsign-bodyheight"
                ]
              },
              "resourceType": "Observation",
              "status": "final",
              "category": [
                {
                  "coding": [
                    {
                      "system": "http://hl7.org/fhir/observation-category",
                      "code": "vital-signs",
                      "display": "Vital Signs"
                    }
                  ],
                  "text": "Vital Signs"
                }
              ],
              "code": {
                "text": "Height",
                "coding": [
                  {
                    "system" : "http://loinc.org",
                    "code" : "8302-2"
                  },
                  {
                    "system" : "http://snomed.info/sct",
                    "code" : "248334005"
                  },
                  {
                    "system" : "http://snomed.info/sct",
                    "code" : "169886007"
                  },
                  {
                    "system" : "http://snomed.info/sct",
                    "code" : "50373000"
                  }
                ]
              },
              "effectiveDateTime": "2019-11-21",
              "performer": [
                {
                  "reference": "urn:uuid:b763b0ba-079e-4276-b527-7f1b30271243",
                  "display": "Examiner"
                },
                {
                  "reference": "urn:uuid:21b0b1aa-d525-4046-a0a2-df928df48d39",
                  "display": "Organisation"
                }
              ],
              "comment": "comment2",
              "interpretation": {
                "text": "Review",
                "coding": [
                  {
                    "code": "1222461000168103",
                    "system": "http://snomed.info/sct",
                    "display": "Follow-up review of patient requested"
                  }
                ]
              },
              "valueQuantity": {
                "value": 89,
                "unit": "cm",
                "code": "cm",
                "system": "http://unitsofmeasure.org"
              },
              "subject": {
                "reference": "urn:uuid:43140538-3e2a-486b-8993-aab0e8d5c20a"
              }
            },
            "fullUrl": "urn:uuid:ceb9d0d0-5f43-4ac4-89ea-f0d8570c813c"
          },
          {
            "resource": {
              "id": "28e1a18c-b033-4431-91d6-d75ca172e9ea",
              "meta": {
                "versionId": "1",
                "lastUpdated": "2019-12-11T14:36:03Z",
                "profile": [
                  "http://hl7.org.au/fhir/ch/v1/StructureDefinition/ncdhc-observation-vitalsign-headcircum"
                ]
              },
              "resourceType": "Observation",
              "status": "final",
              "category": [
                {
                  "coding": [
                    {
                      "system": "http://hl7.org/fhir/observation-category",
                      "code": "vital-signs",
                      "display": "Vital Signs"
                    }
                  ],
                  "text": "Vital Signs"
                }
              ],
              "code": {
                "text": "Head circumference",
                "coding": [
                  {
                    "system" : "http://loinc.org",
                    "code" : "8287-5"
                  },
                  {
                    "system" : "http://snomed.info/sct",
                    "code" : "363812007"
                  },
                  {
                    "system" : "http://snomed.info/sct",
                    "code" : "169876006"
                  }
                ]
              },
              "effectiveDateTime": "2019-11-21",
              "performer": [
                {
                  "reference": "urn:uuid:b763b0ba-079e-4276-b527-7f1b30271243",
                  "display": "Examiner"
                },
                {
                  "reference": "urn:uuid:21b0b1aa-d525-4046-a0a2-df928df48d39",
                  "display": "Organisation"
                }
              ],
              "comment": "comment3",
              "interpretation": {
                "text": "Normal",
                "coding": [
                  {
                    "code": "17621005",
                    "system": "http://snomed.info/sct",
                    "display": "Normal"
                  }
                ]
              },
              "valueQuantity": {
                "value": 65,
                "unit": "cm",
                "code": "cm",
                "system": "http://unitsofmeasure.org"
              },
              "subject": {
                "reference": "urn:uuid:43140538-3e2a-486b-8993-aab0e8d5c20a"
              }
            },
            "fullUrl": "urn:uuid:28e1a18c-b033-4431-91d6-d75ca172e9ea"
          },
          {
            "resource": {
              "id": "b238ee16-acba-4801-ac00-206b7fa3f8b4",
              "meta": {
                "versionId": "1",
                "lastUpdated": "2019-12-11T14:36:03Z",
                "profile": [
                  "http://hl7.org.au/fhir/ch/v1/StructureDefinition/ncdhc-observation-head-shape"
                ]
              },
              "resourceType": "Observation",
              "status": "final",
              "category" : [
                {
                  "coding" : [
                    {
                      "system": "http://hl7.org.au/fhir/ch/v1/CodeSystem/ncdhc-hi-type-1",
                      "code": "HEALTHCKASSMT49M",
                      "display": "Health Check Assessment 4-9 months"
                    }
                  ],
                  "text" : "Health Check Assessment 4-9 months"
                }
              ],
              "code": {
                "text": "Head shape",
                "coding": [
                  {
                    "system": "http://snomed.info/sct",
                    "code": "364407007"
                  }
                ]
              },
              "effectiveDateTime": "2019-11-21",
              "performer": [
                {
                  "reference": "urn:uuid:b763b0ba-079e-4276-b527-7f1b30271243",
                  "display": "Examiner"
                },
                {
                  "reference": "urn:uuid:21b0b1aa-d525-4046-a0a2-df928df48d39",
                  "display": "Organisation"
                }
              ],
              "comment": "comment4",
              "valueCodeableConcept" : {
                "coding" : [
                  {
                    "system" : "http://snomed.info/sct",
                    "code" : "443938003",
                    "display" : "Procedure carried out on subject"
                  }
                ]
              },
              "interpretation": {
                "text": "Normal",
                "coding": [
                  {
                    "code": "17621005",
                    "system": "http://snomed.info/sct",
                    "display": "Normal"
                  }
                ]
              },
              "subject": {
                "reference": "urn:uuid:43140538-3e2a-486b-8993-aab0e8d5c20a"
              }
            },
            "fullUrl": "urn:uuid:b238ee16-acba-4801-ac00-206b7fa3f8b4"
          },
          {
            "resource": {
              "id": "c7e73b0b-6442-4767-942c-bb43e3a7a91f",
              "meta": {
                "versionId": "1",
                "lastUpdated": "2019-12-11T14:36:03Z",
                "profile": [
                  "http://hl7.org.au/fhir/ch/v1/StructureDefinition/ncdhc-observation-eyes"
                ]
              },
              "resourceType": "Observation",
              "status": "final",
              "code": {
                "text": "Eyes",
                "coding": [
                  {
                    "system": "http://snomed.info/sct",
                    "code": "281004000"
                  }
                ]
              },
              "effectiveDateTime": "2019-11-21",
              "performer": [
                {
                  "reference": "urn:uuid:b763b0ba-079e-4276-b527-7f1b30271243",
                  "display": "Examiner"
                },
                {
                  "reference": "urn:uuid:21b0b1aa-d525-4046-a0a2-df928df48d39",
                  "display": "Organisation"
                }
              ],
              "comment": "comment6",
              "component": [
                {
                  "code": {
                    "text": "Eyes Left",
                    "coding": [
                      {
                        "system": "http://snomed.info/sct",
                        "code": "8966001"
                      }
                    ]
                  },
                  "interpretation": {
                    "text": "Review",
                    "coding": [
                      {
                        "code": "1222461000168103",
                        "system": "http://snomed.info/sct",
                        "display": "Follow-up review of patient requested"
                      }
                    ]
                  }
                },
                {
                  "code": {
                    "text": "Eyes Right",
                    "coding": [
                      {
                        "system": "http://snomed.info/sct",
                        "code": "18944008"
                      }
                    ]
                  },
                  "interpretation": {
                    "text": "Refer",
                    "coding": [
                      {
                        "code": "183924009",
                        "system": "http://snomed.info/sct",
                        "display": "Referral needed"
                      }
                    ]
                  }
                }
              ],
              "subject": {
                "reference": "urn:uuid:43140538-3e2a-486b-8993-aab0e8d5c20a"
              }
            },
            "fullUrl": "urn:uuid:c7e73b0b-6442-4767-942c-bb43e3a7a91f"
          },
          {
            "resource": {
              "id": "568532d3-b0f2-4f8f-8ac7-ee93a117da2a",
              "meta": {
                "versionId": "1",
                "lastUpdated": "2019-12-11T14:36:03Z",
                "profile": [
                  "http://hl7.org.au/fhir/ch/v1/StructureDefinition/ncdhc-observation-ears"
                ]
              },
              "resourceType": "Observation",
              "status": "final",
              "code": {
                "text": "Ears",
                "coding": [
                  {
                    "system": "http://snomed.info/sct",
                    "code": "363991003"
                  }
                ]
              },
              "effectiveDateTime": "2019-11-21",
              "performer": [
                {
                  "reference": "urn:uuid:b763b0ba-079e-4276-b527-7f1b30271243",
                  "display": "Examiner"
                },
                {
                  "reference": "urn:uuid:21b0b1aa-d525-4046-a0a2-df928df48d39",
                  "display": "Organisation"
                }
              ],
              "comment": "comment5",
              "component": [
                {
                  "code": {
                    "text": "Ears Left",
                    "coding": [
                      {
                        "system": "http://snomed.info/sct",
                        "code": "89644007"
                      }
                    ]
                  },
                  "interpretation": {
                    "text": "Review",
                    "coding": [
                      {
                        "code": "1222461000168103",
                        "system": "http://snomed.info/sct",
                        "display": "Follow-up review of patient requested"
                      }
                    ]
                  }
                },
                {
                  "code": {
                    "text": "Ears Right",
                    "coding": [
                      {
                        "system": "http://snomed.info/sct",
                        "code": "25577004"
                      }
                    ]
                  },
                  "interpretation": {
                    "text": "Normal",
                    "coding": [
                      {
                        "code": "17621005",
                        "system": "http://snomed.info/sct",
                        "display": "Normal"
                      }
                    ]
                  }
                }
              ],
              "subject": {
                "reference": "urn:uuid:43140538-3e2a-486b-8993-aab0e8d5c20a"
              }
            },
            "fullUrl": "urn:uuid:568532d3-b0f2-4f8f-8ac7-ee93a117da2a"
          },
          {
            "resource": {
              "id": "57b86502-eb2d-41bf-b1f5-62d8573d3dc1",
              "meta": {
                "versionId": "1",
                "lastUpdated": "2019-12-11T14:36:03Z",
                "profile": [
                  "http://hl7.org.au/fhir/ch/v1/StructureDefinition/ncdhc-observation-hips"
                ]
              },
              "resourceType": "Observation",
              "status": "final",
              "code": {
                "text": "Hips",
                "coding": [
                  {
                    "system": "http://snomed.info/sct",
                    "code": "250100005"
                  }
                ]
              },
              "effectiveDateTime": "2019-11-21",
              "performer": [
                {
                  "reference": "urn:uuid:b763b0ba-079e-4276-b527-7f1b30271243",
                  "display": "Examiner"
                },
                {
                  "reference": "urn:uuid:21b0b1aa-d525-4046-a0a2-df928df48d39",
                  "display": "Organisation"
                }
              ],
              "comment": "comment10",
              "valueCodeableConcept" : {
                "coding" : [
                  {
                    "system" : "http://snomed.info/sct",
                    "code" : "443938003",
                    "display" : "Procedure carried out on subject"
                  }
                ]
              },
              "interpretation": {
                "text": "Normal",
                "coding": [
                  {
                    "code": "17621005",
                    "system": "http://snomed.info/sct",
                    "display": "Normal"
                  }
                ]
              },
              "subject": {
                "reference": "urn:uuid:43140538-3e2a-486b-8993-aab0e8d5c20a"
              }
            },
            "fullUrl": "urn:uuid:57b86502-eb2d-41bf-b1f5-62d8573d3dc1"
          },
          {
            "resource": {
              "id": "122af9a5-3128-4047-8787-77c591e9a067",
              "meta": {
                "versionId": "1",
                "lastUpdated": "2019-12-11T14:36:03Z",
                "profile": [
                  "http://hl7.org.au/fhir/ch/v1/StructureDefinition/ncdhc-observation-genitalia"
                ]
              },
              "resourceType": "Observation",
              "status": "final",
              "code": {
                "text": "Genitailia",
                "coding": [
                  {
                    "system": "http://snomed.info/sct",
                    "code": "364204002"
                  }
                ]
              },
              "effectiveDateTime": "2019-11-21",
              "performer": [
                {
                  "reference": "urn:uuid:b763b0ba-079e-4276-b527-7f1b30271243",
                  "display": "Examiner"
                },
                {
                  "reference": "urn:uuid:21b0b1aa-d525-4046-a0a2-df928df48d39",
                  "display": "Organisation"
                }
              ],
              "comment": "comment9",
              "valueCodeableConcept" : {
                "coding" : [
                  {
                    "system" : "http://snomed.info/sct",
                    "code" : "443938003",
                    "display" : "Procedure carried out on subject"
                  }
                ]
              },
              "interpretation": {
                "text": "Normal",
                "coding": [
                  {
                    "code": "17621005",
                    "system": "http://snomed.info/sct",
                    "display": "Normal"
                  }
                ]
              },
              "subject": {
                "reference": "urn:uuid:43140538-3e2a-486b-8993-aab0e8d5c20a"
              }
            },
            "fullUrl": "urn:uuid:122af9a5-3128-4047-8787-77c591e9a067"
          },
          {
            "resource": {
              "id": "9524a461-1348-4689-a0ed-a14954462de5",
              "meta": {
                "versionId": "1",
                "lastUpdated": "2019-12-11T14:36:03Z",
                "profile": [
                  "http://hl7.org.au/fhir/ch/v1/StructureDefinition/ncdhc-observation-skin"
                ]
              },
              "resourceType": "Observation",
              "status": "final",
              "code": {
                "text": "Skin",
                "coding": [
                  {
                    "system": "http://snomed.info/sct",
                    "code": "364528001"
                  }
                ]
              },
              "effectiveDateTime": "2019-11-21",
              "performer": [
                {
                  "reference": "urn:uuid:b763b0ba-079e-4276-b527-7f1b30271243",
                  "display": "Examiner"
                },
                {
                  "reference": "urn:uuid:21b0b1aa-d525-4046-a0a2-df928df48d39",
                  "display": "Organisation"
                }
              ],
              "comment": "comment11",
              "valueCodeableConcept" : {
                "coding" : [
                  {
                    "system" : "http://snomed.info/sct",
                    "code" : "443938003",
                    "display" : "Procedure carried out on subject"
                  }
                ]
              },
              "interpretation": {
                "text": "Refer",
                "coding": [
                  {
                    "code": "183924009",
                    "system": "http://snomed.info/sct",
                    "display": "Referral needed"
                  }
                ]
              },
              "subject": {
                "reference": "urn:uuid:43140538-3e2a-486b-8993-aab0e8d5c20a"
              }
            },
            "fullUrl": "urn:uuid:9524a461-1348-4689-a0ed-a14954462de5"
          },
          {
            "resource": {
              "id": "f78dc491-57e3-479d-a949-6fc4f1821f42",
              "meta": {
                "versionId": "1",
                "lastUpdated": "2019-12-11T14:36:03Z",
                "profile": [
                  "http://hl7.org.au/fhir/ch/v1/StructureDefinition/ncdhc-observation-hearing-check"
                ]
              },
              "resourceType": "Observation",
              "status": "final",
              "code": {
                "text": "Hearing Check",
                "coding": [
                  {
                    "system": "http://snomed.info/sct",
                    "code": "252957005"
                  }
                ]
              },
              "effectiveDateTime": "2019-11-21",
              "performer": [
                {
                  "reference": "urn:uuid:b763b0ba-079e-4276-b527-7f1b30271243",
                  "display": "Examiner"
                },
                {
                  "reference": "urn:uuid:21b0b1aa-d525-4046-a0a2-df928df48d39",
                  "display": "Organisation"
                }
              ],
              "comment": "comment7",
              "subject": {
                "reference": "urn:uuid:43140538-3e2a-486b-8993-aab0e8d5c20a"
              },
              "component":  [
                {
                  "code" : {
                    "coding" : [
                      {
                        "system" : "http://snomed.info/sct",
                        "code" : "250889006",
                        "display" : "Hearing level"
                      }
                    ]
                  },
                  "interpretation" : {
                    "coding" : [
                      {
                        "system" : "http://snomed.info/sct",
                        "code" : "17621005",
                        "display" : "Normal"
                      }
                    ]
                  }
                },
                {
                  "code" : {
                    "coding" : [
                      {
                        "system" : "http://snomed.info/sct",
                        "code" : "364004008",
                        "display" : "Tympanic membrane observable"
                      }
                    ]
                  },
                  "interpretation" : {
                    "coding" : [
                      {
                        "system" : "http://snomed.info/sct",
                        "code" : "17621005",
                        "display" : "Normal"
                      }
                    ]
                  }
                }
              ]
            },
            "fullUrl": "urn:uuid:f78dc491-57e3-479d-a949-6fc4f1821f42"
          },
          {
            "resource": {
              "id": "4efe2ae1-eeda-4938-80fc-91c399d4cfbe",
              "meta": {
                "versionId": "1",
                "lastUpdated": "2019-12-11T14:36:03Z",
                "profile": [
                  "http://hl7.org.au/fhir/ch/v1/StructureDefinition/ncdhc-observation-development"
                ]
              },
              "resourceType": "Observation",
              "status": "final",
              "code": {
                "text": "Development",
                "coding": [
                  {
                    "system": "http://snomed.info/sct",
                    "code": "364674008"
                  }
                ]
              },
              "effectiveDateTime": "2019-11-21",
              "performer": [
                {
                  "reference": "urn:uuid:b763b0ba-079e-4276-b527-7f1b30271243",
                  "display": "Examiner"
                },
                {
                  "reference": "urn:uuid:21b0b1aa-d525-4046-a0a2-df928df48d39",
                  "display": "Organisation"
                }
              ],
              "comment": "comment8",
              "valueCodeableConcept" : {
                "coding" : [
                  {
                    "system" : "http://snomed.info/sct",
                    "code" : "443938003",
                    "display" : "Procedure carried out on subject"
                  }
                ]
              },
              "interpretation": {
                "text": "Review",
                "coding": [
                  {
                    "code": "1222461000168103",
                    "system": "http://snomed.info/sct",
                    "display": "Follow-up review of patient requested"
                  }
                ]
              },
              "subject": {
                "reference": "urn:uuid:43140538-3e2a-486b-8993-aab0e8d5c20a"
              }
            },
            "fullUrl": "urn:uuid:4efe2ae1-eeda-4938-80fc-91c399d4cfbe"
          },
          {
            "resource": {
              "id": "929625a7-e26e-4661-8368-a593579bfad1",
              "meta": {
                "versionId": "1",
                "lastUpdated": "2019-12-11T14:36:03Z",
                "profile": [
                  "http://hl7.org.au/fhir/ch/v1/StructureDefinition/ncdhc-observation-oral-health"
                ]
              },
              "resourceType": "Observation",
              "status": "final",
              "code": {
                "text": "Oral Health",
                "coding": [
                  {
                    "system": "http://snomed.info/sct",
                    "code": "364111005"
                  }
                ]
              },
              "effectiveDateTime": "2019-11-21",
              "performer": [
                {
                  "reference": "urn:uuid:b763b0ba-079e-4276-b527-7f1b30271243",
                  "display": "Examiner"
                },
                {
                  "reference": "urn:uuid:21b0b1aa-d525-4046-a0a2-df928df48d39",
                  "display": "Organisation"
                }
              ],
              "comment": "comment12",
              "valueCodeableConcept" : {
                "coding" : [
                  {
                    "system" : "http://snomed.info/sct",
                    "code" : "443938003",
                    "display" : "Procedure carried out on subject"
                  }
                ]
              },
              "interpretation": {
                "text": "Normal",
                "coding": [
                  {
                    "code": "17621005",
                    "system": "http://snomed.info/sct",
                    "display": "Normal"
                  }
                ]
              },
              "subject": {
                "reference": "urn:uuid:43140538-3e2a-486b-8993-aab0e8d5c20a"
              }
            },
            "fullUrl": "urn:uuid:929625a7-e26e-4661-8368-a593579bfad1"
          },
          {
            "resource": {
              "id": "fb5f551f-4964-40fb-976e-abadc30d62ce",
              "meta": {
                "versionId": "1",
                "lastUpdated": "2019-12-11T14:36:03Z",
                "profile": [
                  "http://hl7.org.au/fhir/ch/v1/StructureDefinition/ncdhc-observation-test-iron"
                ]
              },
              "resourceType": "Observation",
              "status": "final",
              "code": {
                "text": "Iron Testing",
                "coding": [
                  {
                    "system": "http://snomed.info/sct",
                    "code": "42950004"
                  }
                ]
              },
              "effectiveDateTime": "2019-11-21",
              "performer": [
                {
                  "reference": "urn:uuid:b763b0ba-079e-4276-b527-7f1b30271243",
                  "display": "Examiner"
                },
                {
                  "reference": "urn:uuid:21b0b1aa-d525-4046-a0a2-df928df48d39",
                  "display": "Organisation"
                }
              ],
              "comment": "comment13",
              "component": [],
              "valueCodeableConcept": {
                "text": "No",
                "coding": [
                  {
                    "system": "http://snomed.info/sct",
                    "code": "416237000",
                    "display": "Procedure not done"
                  }
                ]
              },
              "subject": {
                "reference": "urn:uuid:43140538-3e2a-486b-8993-aab0e8d5c20a"
              },
              "related": [
                {
                  "target": [
                    {
                      "reference": "urn:uuid:3f3e0d50-72da-4dd2-8a54-7fb088f707c9"
                    },
                    {
                      "reference": "urn:uuid:313e0d50-72da-4dd2-8a54-7fb088f707c9"
                    }
                  ]
                }
              ]
            },
            "fullUrl": "urn:uuid:fb5f551f-4964-40fb-976e-abadc30d62ce"
          },
          {
            "resource": {
              "id": "3f3e0d50-72da-4dd2-8a54-7fb088f707c9",
              "meta": {
                "versionId": "1",
                "lastUpdated": "2019-12-11T14:36:03Z",
                "profile": [
                  "http://hl7.org.au/fhir/ch/v1/StructureDefinition/ncdhc-observation-iron-serum-ferritin"
                ]
              },
              "resourceType": "Observation",
              "status": "final",
              "code": {
                "text": "Serum ferritin measurement",
                "coding": [
                  {
                    "system": "http://snomed.info/sct",
                    "code": "269821003",
                    "display": "Serum ferritin measurement"
                  }
                ]
              },
              "effectiveDateTime": "2019-11-21",
              "performer": [
                {
                  "reference": "urn:uuid:b763b0ba-079e-4276-b527-7f1b30271243",
                  "display": "Examiner"
                },
                {
                  "reference": "urn:uuid:21b0b1aa-d525-4046-a0a2-df928df48d39",
                  "display": "Organisation"
                }
              ],
              "valueQuantity": {
                "value": 4,
                "unit": "ug/L",
                "code": "ug/L",
                "system": "http://unitsofmeasure.org"
              }
            },
            "fullUrl": "urn:uuid:3f3e0d50-72da-4dd2-8a54-7fb088f707c9"
          },
          {
            "resource": {
              "id": "313e0d50-72da-4dd2-8a54-7fb088f707c9",
              "meta": {
                "versionId": "1",
                "lastUpdated": "2019-12-11T14:36:03Z",
                "profile": [
                  "http://hl7.org.au/fhir/ch/v1/StructureDefinition/ncdhc-observation-iron-haemoglobin-level"
                ]
              },
              "resourceType": "Observation",
              "status": "final",
              "code": {
                "text": "Hemoglobin estimation level",
                "coding": [
                  {
                    "system": "http://snomed.info/sct",
                    "code": "271026005",
                    "display": "Hemoglobin estimation level"
                  }
                ]
              },
              "effectiveDateTime": "2019-11-21",
              "performer": [
                {
                  "reference": "urn:uuid:b763b0ba-079e-4276-b527-7f1b30271243",
                  "display": "Examiner"
                },
                {
                  "reference": "urn:uuid:21b0b1aa-d525-4046-a0a2-df928df48d39",
                  "display": "Organisation"
                }
              ],
              "valueQuantity": {
                "value": 13,
                "unit": "ug/L",
                "code": "ug/L",
                "system": "http://unitsofmeasure.org"
              }
            },
            "fullUrl": "urn:uuid:313e0d50-72da-4dd2-8a54-7fb088f707c9"
          },
          {
            "resource": {
              "id": "eb85bbef-9cbb-4611-a942-db39385fe661",
              "meta": {
                "versionId": "1",
                "lastUpdated": "2019-12-11T14:36:03Z",
                "profile": [
                  "http://hl7.org.au/fhir/ch/v1/StructureDefinition/ncdhc-observation-deworming"
                ]
              },
              "resourceType": "Observation",
              "status": "final",
              "code": {
                "text": "Deworming",
                "coding": [
                  {
                    "system": "http://snomed.info/sct",
                    "code": "14369007"
                  }
                ]
              },
              "effectiveDateTime": "2019-11-21",
              "performer": [
                 {
                  "reference": "urn:uuid:b763b0ba-079e-4276-b527-7f1b30271243",
                  "display": "Examiner"
                },
                {
                  "reference": "urn:uuid:21b0b1aa-d525-4046-a0a2-df928df48d39",
                  "display": "Organisation"
                }
              ],
              "comment": "comment14",
              "component": [],
              "valueCodeableConcept": {
                "text": "Yes",
                "coding": [
                  {
                    "system": "http://snomed.info/sct",
                    "code": "443938003",
                    "display": "Procedure carried out on subject"
                  }
                ]
              },
              "subject": {
                "reference": "urn:uuid:43140538-3e2a-486b-8993-aab0e8d5c20a"
              }
            },
            "fullUrl": "urn:uuid:eb85bbef-9cbb-4611-a942-db39385fe661"
          },
          {
            "resource": {
              "id": "18eb3151-1d84-4f8e-9e2c-3fa984020324",
              "meta": {
                "versionId": "1",
                "lastUpdated": "2019-12-11T14:36:03Z",
                "profile": [
                  "http://hl7.org.au/fhir/ch/v1/StructureDefinition/ncdhc-observation-ageaprImmcomp"
                ]
              },
              "resourceType": "Observation",
              "status": "final",
              "code": {
                "text": "Immunisation Complete",
                "coding": [
                  {
                    "system": "http://snomed.info/sct",
                    "code": "408864009",
                    "display": "Vaccination status (observable entity)"
                  }
                ]
              },
              "effectiveDateTime": "2019-11-21",
              "performer": [
                {
                  "reference": "urn:uuid:b763b0ba-079e-4276-b527-7f1b30271243",
                  "display": "Examiner"
                },
                {
                  "reference": "urn:uuid:21b0b1aa-d525-4046-a0a2-df928df48d39",
                  "display": "Organisation"
                }
              ],
              "component": [],
              "valueCodeableConcept": {
                "text": "Yes",
                "coding": [
                  {
                    "system": "http://snomed.info/sct",
                    "code": "443938003",
                    "display": "Procedure carried out on subject"
                  }
                ]
              },
              "subject": {
                "reference": "urn:uuid:43140538-3e2a-486b-8993-aab0e8d5c20a"
              }
            },
            "fullUrl": "urn:uuid:18eb3151-1d84-4f8e-9e2c-3fa984020324"
          }
        ]
      },
      "request": {
        "method": "POST",
        "url": "Bundle"
      }
    },
    {
      "request": {
        "method": "GET",
        "url": "Patient/person-who-has-provided-consent"
      }
    }
  ]
}