{
  "resourceType": "Bundle",
  "id": "ncdhc-hca-nsw-schedule-sample",
  "meta": {
    "versionId": "1",
    "lastUpdated": "2019-10-31T00:00:00Z"
  },
  "identifier": {
    "system": "urn:ietf:rfc:3986",
    "value": "urn:uuid:0v4151bd-1cbf-4d64-b04d-cd9187a4c6e0"
  },
  "type": "document",
  "entry": [
    {
      "fullUrl": "https://ncdhc.health.gov.au/fhir/v1.0.0/Composition/880f219f-97a8-486d-99d9-ed631fe4fc57",
      "resource": {
        "resourceType": "Composition",
        "id": "880f219f-97a8-486d-99d9-ed631fe4fc57",
        "meta": {
          "versionId": "1",
          "lastUpdated": "2019-10-31T00:00:00Z",
          "profile": "http://hl7.org.au/fhir/ch/v1/StructureDefinition/ncdhc-composition-view-schedule"
        },
        "status": "final",
        "type": {
          "coding": [
            {
              "system": "http://hl7.org.au/fhir/ch/v1/CodeSystem/ncdhc-hi-type-1",
              "code": "HCSSCHEDVW",
              "display": "Health Check Schedule"
            }
          ],
          "text": "Health Check Schedule"
        },
        "class": {
          "coding": [
            {
              "system": "http://hl7.org.au/fhir/ch/v1/CodeSystem/ncdhc-document-class-1",
              "code": "HCAVIEW",
              "display": "Health Check Assessment View"
            }
          ],
          "text": "Health Check Assessment View"
        },
        "subject": {
          "reference": "Patient/patient-baby-example",
          "display": "Baby of Eve Bill"
        },
        "date": "2018-12-24T12:30:02Z",
        "author": [
          {
            "reference": "Device/3db74777-fd3d-4d3b-92ec-d405977a11a5",
            "display": "Child Data Hub"
          }
        ],
        "title": "Health Check Schedule",
        "confidentiality": "N",
        "attester": [
          {
            "mode": "professional",
            "time": "2018-12-24T12:30:02Z",
            "party": {
              "reference": "Organization/examiner-organization"
            }
          }
        ],
        "section": [
          {
            "title": "Health Check Schedule",
            "entry": [
              {
                "reference": "QuestionnaireResponse/hca-sch-nsw-qa-en-s1"
              }
            ]
          }
        ]
      }
    },
    {
      "fullUrl": "https://ncdhc.health.gov.au/fhir/v1.0.0/Patient/patient-baby-example",
      "resource": {
        "resourceType": "Patient",
        "text": {
          "status": "generated",
          "div": "<div xmlns=\"http://www.w3.org/1999/xhtml\">\n\t\t\t\t\t\t\n<h1>Baby of Eve Bill</h1>\n\t\t\t\t\t\n</div>"
        },
        "id": "patient-baby-example",
        "meta": {
          "versionId": "1",
          "lastUpdated": "2018-12-27T16:13:03Z",
          "profile": "http://hl7.org.au/fhir/ch/v1/StructureDefinition/ncdhc-patient-baby"
        },
        "extension": [
          {
            "url": "http://hl7.org/fhir/StructureDefinition/birthPlace",
            "valueAddress": {
              "text": "Blacktown Hospital"
            }
          }
        ],
        "identifier": [
          {
            "type": {
              "coding": [
                {
                  "system": "http://hl7.org/fhir/v2/0203",
                  "code": "NI",
                  "display": "National unique individual identifier"
                }
              ],
              "text": "IHI"
            },
            "system": "http://ns.electronichealth.net.au/id/hi/ihi/1.0",
            "value": "8003608000024083"
          },
          {
            "type": {
              "coding": [
                {
                  "system": "http://hl7.org/fhir/v2/0203",
                  "code": "MR",
                  "display": "Medical Record Number"
                }
              ],
              "text": "Medical Record Number"
            },
            "system": "http://ns.electronichealth.net.au/id/hpio-scoped/medicalrecord/1.0",
            "value": "8003620000000000",
            "assigner": {
              "display": "Blacktown Hospital"
            }
          }
        ],
        "active": true,
        "name": [
          {
            "text": "Baby of Eve Bill",
            "family": "Bill",
            "given": [
              "Baby of Eve"
            ]
          }
        ],
        "gender": "female",
        "birthDate": "2018-12-24",
        "_birthDate": {
          "extension": [
            {
              "url": "http://hl7.org/fhir/StructureDefinition/patient-birthTime",
              "valueDateTime": "2018-12-24T14:35:45-05:00"
            }
          ]
        },
        "address": [
          {
            "text": "home",
            "line": [
              "31 Pacquola Street"
            ],
            "city": "Blacktown",
            "state": "NSW",
            "postalCode": "2148",
            "country": "Australia"
          }
        ],
        "contact": [
          {
            "relationship": [
              {
                "coding": [
                  {
                    "system": "http://hl7.org/fhir/v3/RoleCode",
                    "code": "MTH",
                    "display": "mother"
                  }
                ],
                "text": "Mother"
              }
            ],
            "name": {
              "text": "Eve Bill",
              "family": "Bill",
              "given": [
                "Eve"
              ]
            }
          },
          {
            "relationship": [
              {
                "coding": [
                  {
                    "system": "http://hl7.org/fhir/v3/RoleCode",
                    "code": "FTH",
                    "display": "father"
                  }
                ],
                "text": "Father"
              }
            ],
            "name": {
              "text": "Simmons Bill",
              "family": "Bill",
              "given": [
                "Simmons"
              ]
            }
          }
        ]
      }
    },
    {
      "fullUrl": "https://ncdhc.health.gov.au/fhir/v1.0.0/Organization/examiner-organization",
      "resource": {
        "resourceType": "Organization",
        "id": "examiner-organization",
        "text": {
          "status": "generated",
          "div": "<div xmlns=\"http://www.w3.org/1999/xhtml\"><p><b>Generated Narrative with Details</b></p><p><b>id</b>: od78393f-37ca-4738-81d6-d9595b2e5d0f</p><p><b>identifier</b>: ABN = 51824753556</p><p><b>type</b>: Healthcare Provider <span style=\"background: LightGoldenRodYellow\">(Details : {http://hl7.org/fhir/organization-type code 'prov' = 'Healthcare Provider', given as 'Healthcare Provider'})</span></p><p><b>name</b>: Blacktown Hospital</p><p><b>telecom</b>: enquiries@blacktownhospital.com.au(WORK)</p></div>"
        },
        "identifier": [
          {
            "type": {
              "text": "ABN"
            },
            "system": "http://hl7.org.au/id/abn",
            "value": "51824753556"
          }
        ],
        "type": [
          {
            "coding": [
              {
                "system": "http://hl7.org/fhir/organization-type",
                "code": "prov",
                "display": "Healthcare Provider"
              }
            ]
          }
        ],
        "name": "Blacktown Hospital",
        "telecom": [
          {
            "system": "email",
            "value": "enquiries@blacktownhospital.com.au",
            "use": "work"
          }
        ]
      }
    },
    {
      "fullUrl": "https://ncdhc.health.gov.au/fhir/v1.0.0/Device/3db74777-fd3d-4d3b-92ec-d405977a11a5",
      "resource": {
        "resourceType": "Device",
        "id": "3db74777-fd3d-4d3b-92ec-d405977a11a5",
        "meta": {
          "profile": [
            "http://hl7.org.au/fhir/StructureDefinition/au-device"
          ]
        },
        "text": {
          "status": "generated",
          "div": "<div xmlns=\"http://www.w3.org/1999/xhtml\">Child Data Hub</div>"
        },
        "version": "v1.0.0",
        "status": "active"
      }
    },
    {
      "fullUrl": "https://ncdhc.health.gov.au/fhir/v1.0.0/QuestionnaireResponse/hca-sch-nsw-qa-en-s1",
      "resource": {
        "resourceType": "QuestionnaireResponse",
        "id": "hca-sch-nsw-qa-en-s1",
        "questionnaire": {
          "reference": "Questionnaire/hca-sch-nsw-q-en-s1",
          "display": "Health Check Schedule"
        },
        "status": "completed",
        "subject": {
          "reference": "Patient/patient-baby-example"
        },
        "item": [
          {
            "id": "1.0.0.0",
            "linkId": "1",
            "text": "4 year",
            "answer": [
              {
                "valueString": "Due on 7 Jan 2022"
              }
            ]
          },
          {
            "id": "2.0.0.0",
            "linkId": "2",
            "text": "3 year",
            "answer": [
              {
                "valueString": "Due on 7 Jan 2021"
              }
            ]
          },
          {
            "id": "3.0.0.0",
            "linkId": "3",
            "text": "2 year",
            "answer": [
              {
                "valueString": "Due on 7 Jan 2020"
              }
            ]
          },
          {
            "id": "4.0.0.0",
            "linkId": "4",
            "text": "18 month",
            "answer": [
              {
                "valueString": "Due on 7 Jul 2019"
              }
            ]
          },
          {
            "id": "5.0.0.0",
            "linkId": "5",
            "text": "12 month",
            "answer": [
              {
                "valueString": "Due on 7 Jan 2019"
              }
            ]
          },
          {
            "id": "6.0.0.0",
            "linkId": "6",
            "text": "6 month",
            "answer": [
              {
                "valueString": "Due on 7 Jul 2018"
              }
            ]
          },
          {
            "id": "7.0.0.0",
            "linkId": "7",
            "text": "6-8 week",
            "answer": [
              {
                "valueString": "Due on 7 Mar 2018"
              }
            ]
          },
          {
            "id": "8.0.0.0",
            "linkId": "8",
            "text": "1-4 week",
            "answer": [
              {
                "valueString": "Due on 14 Jan 2018"
              }
            ]
          }
        ]
      }
    }
  ]
}