{
  "resourceType": "Bundle",
  "id": "ncdhc-hca-payload-4-9m",
  "identifier": {
    "system": "urn:ietf:rfc:3986",
    "value": "urn:uuid:0c4151bd-1cbf-4d64-b04d-cd9187a4c6e0"
  },
  "type": "document",
  "entry": [
    {
      "resource": {
        "resourceType": "Composition",
        "meta": {
          "versionId": "1",
          "lastUpdated": "2019-12-11T14:36:03Z",
          "profile": [
            "http://hl7.org.au/fhir/ch/v1/StructureDefinition/ncdhc-composition-health-check-assessment"
          ]
        },
        "status": "final",
        "type": {
          "coding": [
            {
              "system": "http://hl7.org.au/fhir/ch/v1/CodeSystem/ncdhc-hi-type-1",
              "code": "HEALTHCKASSMT49M",
              "display": "Health Check Assessment 4-9 months"
            }
          ]
        },
        "class": {
          "coding": [
            {
              "system": "http://hl7.org.au/fhir/ch/v1/CodeSystem/ncdhc-document-class-1",
              "code": "HEALTHCKASSMT",
              "display": "Health Check Assessment"
            }
          ]
        },
        "subject": {
          "reference": "urn:uuid:43140538-3e2a-486b-8993-aab0e8d5c20a"
        },
        "encounter": {
          "reference": "urn:uuid:03140538-3e2a-486b-8993-aab0e8d5c20a"
        },
        "title": "Health Check Assessment Health Interaction",
        "date": "2019-11-21T05:48:51.346Z",
        "author": [
          {
            "reference": "urn:uuid:b763b0ba-079e-4276-b527-7f1b30271243"
          }
        ],
        "attester": [
          {
            "mode": [
              "professional"
            ],
            "party": {
              "reference": "urn:uuid:b763b0ba-079e-4276-b527-7f1b30271243"
            }
          }
        ],
        "custodian": {
          "reference": "urn:uuid:21b0b1aa-d525-4046-a0a2-df928df48d39"
        },
        "section": [
          {
            "title": "Vital Signs and Measurements",
            "code": {
              "coding": [
                {
                  "system": "http://loinc.org",
                  "code": "67795-5"
                }
              ]
            },
            "entry": [
              {
                "reference": "urn:uuid:703736eb-1b26-4057-802f-b19e6c43c258",
                "display": "Weight"
              },
              {
                "reference": "urn:uuid:ceb9d0d0-5f43-4ac4-89ea-f0d8570c813c",
                "display": "Length / Height"
              },
              {
                "reference": "urn:uuid:28e1a18c-b033-4431-91d6-d75ca172e9ea",
                "display": "Head Circumference"
              }
            ]
          },
          {
            "title": "Health conditions section",
            "code": {
              "coding": [
                {
                  "system": "http://loinc.org",
                  "code": "46030-3"
                }
              ]
            },
            "entry": [
              {
                "reference": "urn:uuid:b238ee16-acba-4801-ac00-206b7fa3f8b4",
                "display": "Head Shape"
              },
              {
                "reference": "urn:uuid:568532d3-b0f2-4f8f-8ac7-ee93a117da2a",
                "display": "Ears Right/Left"
              },
              {
                "reference": "urn:uuid:c7e73b0b-6442-4767-942c-bb43e3a7a91f",
                "display": "Eyes (Right/Left)"
              },
              {
                "reference": "urn:uuid:f78dc491-57e3-479d-a949-6fc4f1821f42",
                "display": "Hearing Check"
              },
              {
                "reference": "urn:uuid:4efe2ae1-eeda-4938-80fc-91c399d4cfbe",
                "display": "Development"
              },
              {
                "reference": "urn:uuid:9sfe2ae1-eeda-4938-80fc-91c399d4cfbe",
                "display": "Testes fully descended R/L"
              },
              {
                "reference": "urn:uuid:122af9a5-3128-4047-8787-77c591e9a067",
                "display": "Genitalia"
              },
              {
                "reference": "urn:uuid:57b86502-eb2d-41bf-b1f5-62d8573d3dc1",
                "display": "Hips"
              },
              {
                "reference": "urn:uuid:9524a461-1348-4689-a0ed-a14954462de5",
                "display": "Skin"
              },
              {
                "reference": "urn:uuid:18eb3151-1d84-4f8e-9e2c-3fa984020324",
                "display": "Age Appropriate Immunisation completed as per schedule"
              },
              {
                "reference": "urn:uuid:929625a7-e26e-4661-8368-a593579bfad1",
                "display": "Oral Health"
              },
              {
                "reference": "urn:uuid:fb5f551f-4964-40fb-976e-abadc30d62ce",
                "display": "Iron Testing"
              },
              {
                "reference": "urn:uuid:eb85bbef-9cbb-4611-a942-db39385fe661",
                "display": "Deworming"
              }
            ]
          }
        ]
      },
      "fullUrl": "urn:uuid:0eae70a2-692e-43b3-af0e-c10e4462fc3e"
    },
    {
      "fullUrl": "urn:uuid:03140538-3e2a-486b-8993-aab0e8d5c20a",
      "resource": {
        "resourceType": "Encounter",
        "contained": [
          {
            "resourceType": "Location",
            "id": "lc78393f-37ca-4738-81d6-d9595b2e5d0f",
            "status": "active",
            "name": "Blacktown Hospital"
          }
        ],
        "meta": {
          "versionId": "1",
          "lastUpdated": "2019-11-19T00:00:00Z",
          "profile": "http://hl7.org.au/fhir/ch/v1/StructureDefinition/ncdhc-encounter"
        },
        "text": {
          "status": "generated",
          "div": "<div xmlns=\"http://www.w3.org/1999/xhtml\"><p><b>Sample Encounter</b></p></div>"
        },
        "status": "finished",
        "subject": {
          "reference": "urn:uuid:43140538-3e2a-486b-8993-aab0e8d5c20a"
        },
        "participant": [
          {
            "type": [
              {
                "coding": [
                  {
                    "system": "http://hl7.org/fhir/v3/ParticipationType",
                    "code": "CALLBCK",
                    "display": "callback contact"
                  }
                ],
                "text": "Clinically responsible person"
              }
            ],
            "individual": {
              "reference": "urn:uuid:b763b0ba-079e-4276-b527-7f1b30271243"
            }
          }
        ],
        "period": {
          "start": "2019-11-17T16:00:00+10:00",
          "end": "2019-11-17T16:00:00+10:00"
        },
        "serviceProvider": {
          "reference": "urn:uuid:21b0b1aa-d525-4046-a0a2-df928df48d39"
        },
        "location": [
          {
            "location": {
              "reference": "#lc78393f-37ca-4738-81d6-d9595b2e5d0f"
            }
          }
        ]
      }
    },
    {
      "resource": {
        "resourceType": "Patient",
        "text": {
          "status": "generated",
          "div": "<div xmlns=\"http://www.w3.org/1999/xhtml\">\n\t\t\t\t\t\t\n<h1>Baby of Eve Bill</h1>\n\t\t\t\t\t\n</div>"
        },
        "meta": {
          "versionId": "1",
          "lastUpdated": "2018-12-27T16:13:03Z",
          "profile": "http://hl7.org.au/fhir/ch/v1/StructureDefinition/ncdhc-patient-baby"
        },
        "extension": [
          {
            "url": "http://hl7.org/fhir/StructureDefinition/birthPlace",
            "valueAddress": {
              "text": "Blacktown Hospital"
            }
          }
        ],
        "identifier": [
          {
            "type": {
              "coding": [
                {
                  "system": "http://hl7.org/fhir/v2/0203",
                  "code": "NI",
                  "display": "National unique individual identifier"
                }
              ],
              "text": "IHI"
            },
            "system": "http://ns.electronichealth.net.au/id/hi/ihi/1.0",
            "value": "8003608000024083"
          },
          {
            "type": {
              "coding": [
                {
                  "system": "http://hl7.org/fhir/v2/0203",
                  "code": "MR",
                  "display": "Medical Record Number"
                }
              ],
              "text": "Medical Record Number"
            },
            "system": "http://ns.electronichealth.net.au/id/hpio-scoped/medicalrecord/1.0",
            "value": "8003620000000000",
            "assigner": {
              "display": "Blacktown Hospital"
            }
          }
        ],
        "active": true,
        "name": [
          {
            "text": "Baby of Eve Bill",
            "family": "Bill",
            "given": [
              "Baby of Eve"
            ]
          }
        ],
        "gender": "female",
        "birthDate": "2018-12-24",
        "_birthDate": {
          "extension": [
            {
              "url": "http://hl7.org/fhir/StructureDefinition/patient-birthTime",
              "valueDateTime": "2018-12-24T14:35:45-05:00"
            }
          ]
        },
        "address": [
          {
            "text": "home",
            "line": [
              "31 Pacquola Street"
            ],
            "city": "Blacktown",
            "state": "NSW",
            "postalCode": "2148",
            "country": "Australia"
          }
        ],
        "contact": [
          {
            "relationship": [
              {
                "coding": [
                  {
                    "system": "http://hl7.org/fhir/v3/RoleCode",
                    "code": "MTH",
                    "display": "mother"
                  }
                ],
                "text": "Mother"
              }
            ],
            "name": {
              "text": "Eve Bill",
              "family": "Bill",
              "given": [
                "Eve"
              ]
            }
          },
          {
            "relationship": [
              {
                "coding": [
                  {
                    "system": "http://hl7.org/fhir/v3/RoleCode",
                    "code": "FTH",
                    "display": "father"
                  }
                ],
                "text": "Father"
              }
            ],
            "name": {
              "text": "Simmons Bill",
              "family": "Bill",
              "given": [
                "Simmons"
              ]
            }
          }
        ]
      },
      "fullUrl": "urn:uuid:43140538-3e2a-486b-8993-aab0e8d5c20a"
    },
    {
      "resource": {
        "resourceType": "Organization",
        "text": {
          "status": "generated",
          "div": "<div xmlns=\"http://www.w3.org/1999/xhtml\"><p><b>Generated Narrative with Details</b></p><p><b>id</b>: od78393f-37ca-4738-81d6-d9595b2e5d0f</p><p><b>identifier</b>: ABN = 51824753556</p><p><b>type</b>: Healthcare Provider <span style=\"background: LightGoldenRodYellow\">(Details : {http://hl7.org/fhir/organization-type code 'prov' = 'Healthcare Provider', given as 'Healthcare Provider'})</span></p><p><b>name</b>: Blacktown Hospital</p><p><b>telecom</b>: enquiries@blacktownhospital.com.au(WORK)</p></div>"
        },
        "identifier": [
          {
            "type": {
              "coding": [
                {
                  "system": "http://hl7.org.au/fhir/v2/0203",
                  "code": "NOI",
                  "display": "National Organisation Identifier"
                }
              ],
              "text": "HPI-O"
            },
            "system": "http://ns.electronichealth.net.au/id/hi/hpio/1.0",
            "value": "8003621566684455"
          }
        ],
        "type": [
          {
            "coding": [
              {
                "system": "http://hl7.org/fhir/organization-type",
                "code": "prov",
                "display": "Healthcare Provider"
              }
            ]
          }
        ],
        "name": "Blacktown Hospital",
        "telecom": [
          {
            "system": "email",
            "value": "enquiries@blacktownhospital.com.au",
            "use": "work"
          }
        ]
      },
      "fullUrl": "urn:uuid:21b0b1aa-d525-4046-a0a2-df928df48d39"
    },
    {
      "resource": {
        "resourceType": "Practitioner",
        "meta": {
          "versionId": "1",
          "lastUpdated": "2019-12-11T14:36:03Z",
          "profile": [
            "http://hl7.org.au/fhir/StructureDefinition/au-practitioner"
          ]
        },
        "active": true,
        "identifier": [
          {
            "type": {
              "text": "HPI-I",
              "coding": [
                {
                  "system": "http://hl7.org/fhir/v2/0203",
                  "code": "NPI"
                }
              ]
            },
            "system": "http://ns.electronichealth.net.au/id/hi/hpii/1.0",
            "value": "8003619900015717"
          }
        ],
        "name": [
          {
            "use": "usual",
            "family": "TESTER",
            "given": [
              "TERRY"
            ]
          }
        ]
      },
      "fullUrl": "urn:uuid:b763b0ba-079e-4276-b527-7f1b30271243"
    },
    {
      "resource": {
        "meta": {
          "versionId": "1",
          "lastUpdated": "2019-12-11T14:36:03Z",
          "profile": [
            "http://hl7.org.au/fhir/ch/v1/StructureDefinition/ncdhc-observation-vitalsign-bodyweight"
          ]
        },
        "resourceType": "Observation",
        "status": "final",
        "category": [
          {
            "coding": [
              {
                "system": "http://hl7.org/fhir/observation-category",
                "code": "vital-signs",
                "display": "Vital Signs"
              }
            ],
            "text": "Vital Signs"
          }
        ],
        "code": {
          "text": "Weight",
          "coding": [
            {
              "system": "http://loinc.org",
              "code": "29463-7",
              "display": "Body weight"
            },
            {
              "system": "http://snomed.info/sct",
              "code": "27113001"
            }
          ]
        },
        "effectiveDateTime": "2019-11-21",
        "performer": [
          {
            "reference": "urn:uuid:b763b0ba-079e-4276-b527-7f1b30271243",
            "display": "Examiner"
          },
          {
            "reference": "urn:uuid:21b0b1aa-d525-4046-a0a2-df928df48d39",
            "display": "Organisation"
          }
        ],
        "comment": "comment1",
        "interpretation": {
          "text": "Normal",
          "coding": [
            {
              "code": "17621005",
              "system": "http://snomed.info/sct",
              "display": "Normal"
            }
          ]
        },
        "valueQuantity": {
          "value": 5.6,
          "unit": "kg",
          "code": "kg",
          "system": "http://unitsofmeasure.org"
        },
        "subject": {
          "reference": "urn:uuid:43140538-3e2a-486b-8993-aab0e8d5c20a"
        }
      },
      "fullUrl": "urn:uuid:703736eb-1b26-4057-802f-b19e6c43c258"
    },
    {
      "fullUrl": "urn:uuid:ceb9d0d0-5f43-4ac4-89ea-f0d8570c813c",
      "resource": {
        "resourceType": "Observation",
        "meta": {
          "versionId": "1",
          "lastUpdated": "2018-12-27T16:13:03Z",
          "profile": [
            "http://hl7.org.au/fhir/ch/v1/StructureDefinition/ncdhc-observation-vitalsign-bodyheight"
          ]
        },
        "text": {
          "status": "additional",
          "div": "<div xmlns=\"http://www.w3.org/1999/xhtml\">Body Height</div>"
        },
        "status": "final",
        "category": [
          {
            "coding": [
              {
                "system": "http://hl7.org/fhir/observation-category",
                "code": "vital-signs",
                "display": "Vital Signs"
              }
            ],
            "text": "Vital Signs"
          }
        ],
        "code": {
          "coding": [
            {
              "system": "http://loinc.org",
              "code": "8302-2",
              "display": "Body height"
            },
            {
              "system": "http://snomed.info/sct",
              "code": "50373000"
            }
          ],
          "text": "Body Height"
        },
        "subject": {
          "reference": "urn:uuid:43140538-3e2a-486b-8993-aab0e8d5c20a",
          "display": "Baby of Eve Bill"
        },
        "effectiveDateTime": "2018-12-27T16:13:03Z",
        "performer": [
          {
            "reference": "urn:uuid:b763b0ba-079e-4276-b527-7f1b30271243",
            "display": "Examiner"
          },
          {
            "reference": "urn:uuid:21b0b1aa-d525-4046-a0a2-df928df48d39",
            "display": "Organisation"
          }
        ],
        "valueQuantity": {
          "value": 125,
          "unit": "cm",
          "system": "http://unitsofmeasure.org",
          "code": "cm"
        }
      }
    },
    {
      "fullUrl": "urn:uuid:28e1a18c-b033-4431-91d6-d75ca172e9ea",
      "resource": {
        "resourceType": "Observation",
        "meta": {
          "versionId": "1",
          "lastUpdated": "2018-12-27T16:13:03Z",
          "profile": [
            "http://hl7.org.au/fhir/ch/v1/StructureDefinition/ncdhc-observation-vitalsign-headcircum"
          ]
        },
        "text": {
          "status": "additional",
          "div": "<div xmlns=\"http://www.w3.org/1999/xhtml\">Birth head circumference</div>"
        },
        "status": "final",
        "category": [
          {
            "coding": [
              {
                "system": "http://hl7.org/fhir/observation-category",
                "code": "vital-signs",
                "display": "Vital Signs"
              }
            ],
            "text": "Vital Signs"
          }
        ],
        "code": {
          "coding": [
            {
              "system": "http://loinc.org",
              "code": "8287-5"
            },
            {
              "system": "http://snomed.info/sct",
              "code": "363812007"
            },
            {
              "system": "http://snomed.info/sct",
              "code": "169876006"
            }
          ],
          "text": "Birth Head Circumference"
        },
        "subject": {
          "reference": "urn:uuid:43140538-3e2a-486b-8993-aab0e8d5c20a",
          "display": "Baby of Eve Bill"
        },
        "effectiveDateTime": "2018-12-27T16:13:03Z",
        "performer": [
          {
            "reference": "urn:uuid:b763b0ba-079e-4276-b527-7f1b30271243",
            "display": "Examiner"
          },
          {
            "reference": "urn:uuid:21b0b1aa-d525-4046-a0a2-df928df48d39",
            "display": "Organisation"
          }
        ],
        "valueQuantity": {
          "value": 35,
          "unit": "cm",
          "system": "http://unitsofmeasure.org",
          "code": "cm"
        }
      }
    },
    {
      "fullUrl": "urn:uuid:b238ee16-acba-4801-ac00-206b7fa3f8b4",
      "resource": {
        "resourceType": "Observation",
        "meta": {
          "versionId": "1",
          "lastUpdated": "2019-12-11T14:36:03Z",
          "profile": [
            "http://hl7.org.au/fhir/ch/v1/StructureDefinition/ncdhc-observation-head-shape"
          ]
        },
        "text": {
          "status": "generated",
          "div": "<div xmlns=\"http://www.w3.org/1999/xhtml\"><p><b>Generated Narrative with Details</b></p><p><b>id</b>: b238ee16-acba-4801-ac00-206b7fa3f8b4</p><p><b>meta</b>: </p><p><b>status</b>: final</p><p><b>code</b>: Head shape <span style=\"background: LightGoldenRodYellow\">(Details : {SNOMED CT code '364407007' = 'Appearance of head)</span></p><p><b>subject</b>: <a href=\"urn:uuid:43140538-3e2a-486b-8993-aab0e8d5c20a\">urn:uuid:43140538-3e2a-486b-8993-aab0e8d5c20a</a></p><p><b>effective</b>: 2019-11-21</p><p><b>performer</b>: </p><ul><li><a href=\"urn:uuid:b763b0ba-079e-4276-b527-7f1b30271243\">Examiner</a></li><li><a href=\"urn:uuid:21b0b1aa-d525-4046-a0a2-df928df48d39\">Organisation</a></li></ul><p><b>value</b>: Procedure carried out on subject <span style=\"background: LightGoldenRodYellow\">(Details : {SNOMED CT code '443938003' = 'Procedure carried out on subject (situation)', given as 'Procedure carried out on subject'})</span></p><p><b>interpretation</b>: Normal <span style=\"background: LightGoldenRodYellow\">(Details : {SNOMED CT code '17621005' = 'Normal', given as 'Normal'})</span></p><p><b>comment</b>: comment4</p></div>"
        },
        "status": "final",
        "code": {
          "coding": [
            {
              "system": "http://snomed.info/sct",
              "code": "364407007"
            }
          ],
          "text": "Head shape"
        },
        "subject": {
          "reference": "urn:uuid:43140538-3e2a-486b-8993-aab0e8d5c20a"
        },
        "effectiveDateTime": "2019-11-21",
        "performer": [
          {
            "reference": "urn:uuid:b763b0ba-079e-4276-b527-7f1b30271243",
            "display": "Examiner"
          },
          {
            "reference": "urn:uuid:21b0b1aa-d525-4046-a0a2-df928df48d39",
            "display": "Organisation"
          }
        ],
        "valueCodeableConcept": {
          "coding": [
            {
              "system": "http://snomed.info/sct",
              "code": "443938003",
              "display": "Procedure carried out on subject"
            }
          ]
        },
        "interpretation": {
          "coding": [
            {
              "system": "http://snomed.info/sct",
              "code": "17621005",
              "display": "Normal"
            }
          ],
          "text": "Normal"
        },
        "comment": "comment4"
      }
    },
    {
      "fullUrl": "urn:uuid:c7e73b0b-6442-4767-942c-bb43e3a7a91f",
      "resource": {
        "resourceType": "Observation",
        "meta": {
          "versionId": "1",
          "lastUpdated": "2018-12-27T16:13:03Z",
          "profile": [
            "http://hl7.org.au/fhir/ch/v1/StructureDefinition/ncdhc-observation-eyes"
          ]
        },
        "text": {
          "status": "additional",
          "div": "<div xmlns=\"http://www.w3.org/1999/xhtml\">Both eyes assessed normal.</div>"
        },
        "status": "final",
        "code": {
          "coding": [
            {
              "system": "http://snomed.info/sct",
              "code": "281004000",
              "display": "Visual function"
            }
          ]
        },
        "subject": {
          "reference": "urn:uuid:43140538-3e2a-486b-8993-aab0e8d5c20a",
          "display": "Baby of Eve Bill"
        },
        "effectiveDateTime": "2018-12-27T16:13:03Z",
        "performer": [
          {
            "reference": "urn:uuid:b763b0ba-079e-4276-b527-7f1b30271243",
            "display": "Examiner"
          },
          {
            "reference": "urn:uuid:21b0b1aa-d525-4046-a0a2-df928df48d39",
            "display": "Organisation"
          }
        ],
        "valueCodeableConcept": {
          "coding": [
            {
              "system": "http://snomed.info/sct",
              "code": "443938003",
              "display": "Procedure carried out on subject"
            }
          ]
        },
        "comment": "Completed",
        "component": [
          {
            "code": {
              "coding": [
                {
                  "system": "http://snomed.info/sct",
                  "code": "8966001",
                  "display": "Left eye structure"
                }
              ]
            },
            "interpretation": {
              "coding": [
                {
                  "system": "http://snomed.info/sct",
                  "code": "17621005",
                  "display": "Normal"
                }
              ]
            }
          },
          {
            "code": {
              "coding": [
                {
                  "system": "http://snomed.info/sct",
                  "code": "18944008",
                  "display": "Right eye structure"
                }
              ]
            },
            "interpretation": {
              "coding": [
                {
                  "system": "http://snomed.info/sct",
                  "code": "17621005",
                  "display": "Normal"
                }
              ]
            }
          }
        ]
      }
    },
    {
      "fullUrl": "urn:uuid:568532d3-b0f2-4f8f-8ac7-ee93a117da2a",
      "resource": {
        "resourceType": "Observation",
        "meta": {
          "versionId": "1",
          "lastUpdated": "2018-12-27T16:13:03Z",
          "profile": [
            "http://hl7.org.au/fhir/ch/v1/StructureDefinition/ncdhc-observation-ears"
          ]
        },
        "text": {
          "status": "additional",
          "div": "<div xmlns=\"http://www.w3.org/1999/xhtml\">Ears Assessed.</div>"
        },
        "status": "final",
        "code": {
          "coding": [
            {
              "system": "http://snomed.info/sct",
              "code": "363991003",
              "display": "Ear observable"
            }
          ]
        },
        "subject": {
          "reference": "urn:uuid:43140538-3e2a-486b-8993-aab0e8d5c20a",
          "display": "Baby of Eve Bill"
        },
        "effectiveDateTime": "2018-12-27T16:13:03Z",
        "performer": [
          {
            "reference": "urn:uuid:b763b0ba-079e-4276-b527-7f1b30271243",
            "display": "Examiner"
          },
          {
            "reference": "urn:uuid:21b0b1aa-d525-4046-a0a2-df928df48d39",
            "display": "Organisation"
          }
        ],
        "valueCodeableConcept": {
          "coding": [
            {
              "system": "http://snomed.info/sct",
              "code": "443938003",
              "display": "Procedure carried out on subject"
            }
          ]
        },
        "comment": "Completed",
        "component": [
          {
            "code": {
              "coding": [
                {
                  "system": "http://snomed.info/sct",
                  "code": "89644007",
                  "display": "Left ear"
                }
              ]
            },
            "interpretation": {
              "coding": [
                {
                  "system": "http://snomed.info/sct",
                  "code": "17621005",
                  "display": "Normal"
                }
              ]
            }
          },
          {
            "code": {
              "coding": [
                {
                  "system": "http://snomed.info/sct",
                  "code": "25577004",
                  "display": "Right ear"
                }
              ]
            },
            "interpretation": {
              "coding": [
                {
                  "system": "http://snomed.info/sct",
                  "code": "17621005",
                  "display": "Normal"
                }
              ]
            }
          }
        ]
      }
    },
    {
      "fullUrl": "urn:uuid:57b86502-eb2d-41bf-b1f5-62d8573d3dc1",
      "resource": {
        "resourceType": "Observation",
        "meta": {
          "versionId": "1",
          "lastUpdated": "2019-12-11T14:36:03Z",
          "profile": [
            "http://hl7.org.au/fhir/ch/v1/StructureDefinition/ncdhc-observation-hips"
          ]
        },
        "text": {
          "status": "generated",
          "div": "<div xmlns=\"http://www.w3.org/1999/xhtml\"><p><b>Generated Narrative with Details</b></p><p><b>id</b>: 57b86502-eb2d-41bf-b1f5-62d8573d3dc1</p><p><b>meta</b>: </p><p><b>status</b>: final</p><p><b>code</b>: Hips <span style=\"background: LightGoldenRodYellow\">(Details : {SNOMED CT code '250100005' = 'Hip joint stability)</span></p><p><b>subject</b>: <a href=\"urn:uuid:43140538-3e2a-486b-8993-aab0e8d5c20a\">urn:uuid:43140538-3e2a-486b-8993-aab0e8d5c20a</a></p><p><b>effective</b>: 2019-11-21</p><p><b>performer</b>: </p><ul><li><a href=\"urn:uuid:b763b0ba-079e-4276-b527-7f1b30271243\">Examiner</a></li><li><a href=\"urn:uuid:21b0b1aa-d525-4046-a0a2-df928df48d39\">Organisation</a></li></ul><p><b>value</b>: Procedure carried out on subject <span style=\"background: LightGoldenRodYellow\">(Details : {SNOMED CT code '443938003' = 'Procedure carried out on subject (situation)', given as 'Procedure carried out on subject'})</span></p><p><b>interpretation</b>: Normal <span style=\"background: LightGoldenRodYellow\">(Details : {SNOMED CT code '17621005' = 'Normal', given as 'Normal'})</span></p><p><b>comment</b>: comment10</p></div>"
        },
        "status": "final",
        "code": {
          "coding": [
            {
              "system": "http://snomed.info/sct",
              "code": "250100005"
            }
          ],
          "text": "Hips"
        },
        "subject": {
          "reference": "urn:uuid:43140538-3e2a-486b-8993-aab0e8d5c20a"
        },
        "effectiveDateTime": "2019-11-21",
        "performer": [
          {
            "reference": "urn:uuid:b763b0ba-079e-4276-b527-7f1b30271243",
            "display": "Examiner"
          },
          {
            "reference": "urn:uuid:21b0b1aa-d525-4046-a0a2-df928df48d39",
            "display": "Organisation"
          }
        ],
        "valueCodeableConcept": {
          "coding": [
            {
              "system": "http://snomed.info/sct",
              "code": "443938003",
              "display": "Procedure carried out on subject"
            }
          ]
        },
        "interpretation": {
          "coding": [
            {
              "system": "http://snomed.info/sct",
              "code": "17621005",
              "display": "Normal"
            }
          ],
          "text": "Normal"
        },
        "comment": "comment10"
      }
    },
    {
      "fullUrl": "urn:uuid:122af9a5-3128-4047-8787-77c591e9a067",
      "resource": {
        "resourceType": "Observation",
        "meta": {
          "versionId": "1",
          "lastUpdated": "2019-12-11T14:36:03Z",
          "profile": [
            "http://hl7.org.au/fhir/ch/v1/StructureDefinition/ncdhc-observation-genitalia"
          ]
        },
        "text": {
          "status": "generated",
          "div": "<div xmlns=\"http://www.w3.org/1999/xhtml\"><p><b>Generated Narrative with Details</b></p><p><b>id</b>: 122af9a5-3128-4047-8787-77c591e9a067</p><p><b>meta</b>: </p><p><b>status</b>: final</p><p><b>code</b>: Genitailia <span style=\"background: LightGoldenRodYellow\">(Details : {SNOMED CT code '364204002' = 'Genital observable)</span></p><p><b>subject</b>: <a href=\"urn:uuid:43140538-3e2a-486b-8993-aab0e8d5c20a\">urn:uuid:43140538-3e2a-486b-8993-aab0e8d5c20a</a></p><p><b>effective</b>: 2019-11-21</p><p><b>performer</b>: </p><ul><li><a href=\"urn:uuid:b763b0ba-079e-4276-b527-7f1b30271243\">Examiner</a></li><li><a href=\"urn:uuid:21b0b1aa-d525-4046-a0a2-df928df48d39\">Organisation</a></li></ul><p><b>value</b>: Procedure carried out on subject <span style=\"background: LightGoldenRodYellow\">(Details : {SNOMED CT code '443938003' = 'Procedure carried out on subject (situation)', given as 'Procedure carried out on subject'})</span></p><p><b>interpretation</b>: Normal <span style=\"background: LightGoldenRodYellow\">(Details : {SNOMED CT code '17621005' = 'Normal', given as 'Normal'})</span></p><p><b>comment</b>: comment9</p></div>"
        },
        "status": "final",
        "code": {
          "coding": [
            {
              "system": "http://snomed.info/sct",
              "code": "364204002"
            }
          ],
          "text": "Genitailia"
        },
        "subject": {
          "reference": "urn:uuid:43140538-3e2a-486b-8993-aab0e8d5c20a"
        },
        "effectiveDateTime": "2019-11-21",
        "performer": [
          {
            "reference": "urn:uuid:b763b0ba-079e-4276-b527-7f1b30271243",
            "display": "Examiner"
          },
          {
            "reference": "urn:uuid:21b0b1aa-d525-4046-a0a2-df928df48d39",
            "display": "Organisation"
          }
        ],
        "valueCodeableConcept": {
          "coding": [
            {
              "system": "http://snomed.info/sct",
              "code": "443938003",
              "display": "Procedure carried out on subject"
            }
          ]
        },
        "interpretation": {
          "coding": [
            {
              "system": "http://snomed.info/sct",
              "code": "17621005",
              "display": "Normal"
            }
          ],
          "text": "Normal"
        },
        "comment": "comment9"
      }
    },
    {
      "fullUrl": "urn:uuid:9524a461-1348-4689-a0ed-a14954462de5",
      "resource": {
        "resourceType": "Observation",
        "meta": {
          "versionId": "1",
          "lastUpdated": "2019-12-11T14:36:03Z",
          "profile": [
            "http://hl7.org.au/fhir/ch/v1/StructureDefinition/ncdhc-observation-skin"
          ]
        },
        "text": {
          "status": "generated",
          "div": "<div xmlns=\"http://www.w3.org/1999/xhtml\"><p><b>Generated Narrative with Details</b></p><p><b>id</b>: 9524a461-1348-4689-a0ed-a14954462de5</p><p><b>meta</b>: </p><p><b>status</b>: final</p><p><b>code</b>: Skin <span style=\"background: LightGoldenRodYellow\">(Details : {SNOMED CT code '364528001' = 'Skin observable)</span></p><p><b>subject</b>: <a href=\"urn:uuid:43140538-3e2a-486b-8993-aab0e8d5c20a\">urn:uuid:43140538-3e2a-486b-8993-aab0e8d5c20a</a></p><p><b>effective</b>: 2019-11-21</p><p><b>performer</b>: </p><ul><li><a href=\"urn:uuid:b763b0ba-079e-4276-b527-7f1b30271243\">Examiner</a></li><li><a href=\"urn:uuid:21b0b1aa-d525-4046-a0a2-df928df48d39\">Organisation</a></li></ul><p><b>value</b>: Procedure carried out on subject <span style=\"background: LightGoldenRodYellow\">(Details : {SNOMED CT code '443938003' = 'Procedure carried out on subject (situation)', given as 'Procedure carried out on subject'})</span></p><p><b>interpretation</b>: Refer <span style=\"background: LightGoldenRodYellow\">(Details : {SNOMED CT code '183924009' = 'Referral needed', given as 'Referral needed'})</span></p><p><b>comment</b>: comment11</p></div>"
        },
        "status": "final",
        "code": {
          "coding": [
            {
              "system": "http://snomed.info/sct",
              "code": "364528001"
            }
          ],
          "text": "Skin"
        },
        "subject": {
          "reference": "urn:uuid:43140538-3e2a-486b-8993-aab0e8d5c20a"
        },
        "effectiveDateTime": "2019-11-21",
        "performer": [
          {
            "reference": "urn:uuid:b763b0ba-079e-4276-b527-7f1b30271243",
            "display": "Examiner"
          },
          {
            "reference": "urn:uuid:21b0b1aa-d525-4046-a0a2-df928df48d39",
            "display": "Organisation"
          }
        ],
        "valueCodeableConcept": {
          "coding": [
            {
              "system": "http://snomed.info/sct",
              "code": "443938003",
              "display": "Procedure carried out on subject"
            }
          ]
        },
        "interpretation": {
          "coding": [
            {
              "system": "http://snomed.info/sct",
              "code": "183924009",
              "display": "Referral needed"
            }
          ],
          "text": "Refer"
        },
        "comment": "comment11"
      }
    },
    {
      "fullUrl": "urn:uuid:f78dc491-57e3-479d-a949-6fc4f1821f42",
      "resource": {
        "resourceType": "Observation",
        "meta": {
          "versionId": "1",
          "lastUpdated": "2019-12-11T14:36:03Z",
          "profile": [
            "http://hl7.org.au/fhir/ch/v1/StructureDefinition/ncdhc-observation-hearing-check"
          ]
        },
        "text": {
          "status": "generated",
          "div": "<div xmlns=\"http://www.w3.org/1999/xhtml\"><p><b>Generated Narrative with Details</b></p><p><b>id</b>: f78dc491-57e3-479d-a949-6fc4f1821f42</p><p><b>meta</b>: </p><p><b>status</b>: final</p><p><b>code</b>: Hearing Check <span style=\"background: LightGoldenRodYellow\">(Details : {SNOMED CT code '252957005' = 'Children's hearing test)</span></p><p><b>subject</b>: <a href=\"urn:uuid:43140538-3e2a-486b-8993-aab0e8d5c20a\">urn:uuid:43140538-3e2a-486b-8993-aab0e8d5c20a</a></p><p><b>effective</b>: 2019-11-21</p><p><b>performer</b>: </p><ul><li><a href=\"urn:uuid:b763b0ba-079e-4276-b527-7f1b30271243\">Examiner</a></li><li><a href=\"urn:uuid:21b0b1aa-d525-4046-a0a2-df928df48d39\">Organisation</a></li></ul><p><b>comment</b>: comment7</p><blockquote><p><b>component</b></p><p><b>code</b>: Hearing level <span style=\"background: LightGoldenRodYellow\">(Details : {SNOMED CT code '250889006' = 'Hearing level', given as 'Hearing level'})</span></p><p><b>interpretation</b>: Normal <span style=\"background: LightGoldenRodYellow\">(Details : {SNOMED CT code '17621005' = 'Normal', given as 'Normal'})</span></p></blockquote><blockquote><p><b>component</b></p><p><b>code</b>: Tympanic membrane observable <span style=\"background: LightGoldenRodYellow\">(Details : {SNOMED CT code '364004008' = 'Tympanic membrane observable', given as 'Tympanic membrane observable'})</span></p><p><b>interpretation</b>: Normal <span style=\"background: LightGoldenRodYellow\">(Details : {SNOMED CT code '17621005' = 'Normal', given as 'Normal'})</span></p></blockquote></div>"
        },
        "status": "final",
        "code": {
          "coding": [
            {
              "system": "http://snomed.info/sct",
              "code": "363992005"
            }
          ],
          "text": "Hearing Check"
        },
        "subject": {
          "reference": "urn:uuid:43140538-3e2a-486b-8993-aab0e8d5c20a"
        },
        "effectiveDateTime": "2019-11-21",
        "performer": [
          {
            "reference": "urn:uuid:b763b0ba-079e-4276-b527-7f1b30271243",
            "display": "Examiner"
          },
          {
            "reference": "urn:uuid:21b0b1aa-d525-4046-a0a2-df928df48d39",
            "display": "Organisation"
          }
        ],
        "comment": "comment7",
        "component": [
          {
            "code": {
              "coding": [
                {
                  "system": "http://snomed.info/sct",
                  "code": "250889006",
                  "display": "Hearing level"
                }
              ]
            },
            "interpretation": {
              "coding": [
                {
                  "system": "http://snomed.info/sct",
                  "code": "17621005",
                  "display": "Normal"
                }
              ]
            }
          },
          {
            "code": {
              "coding": [
                {
                  "system": "http://snomed.info/sct",
                  "code": "364004008",
                  "display": "Tympanic membrane observable"
                }
              ]
            },
            "interpretation": {
              "coding": [
                {
                  "system": "http://snomed.info/sct",
                  "code": "17621005",
                  "display": "Normal"
                }
              ]
            }
          }
        ]
      }
    },
    {
      "fullUrl": "urn:uuid:4efe2ae1-eeda-4938-80fc-91c399d4cfbe",
      "resource": {
        "resourceType": "Observation",
        "meta": {
          "versionId": "1",
          "lastUpdated": "2018-12-27T16:13:03Z",
          "profile": [
            "http://hl7.org.au/fhir/ch/v1/StructureDefinition/ncdhc-observation-development"
          ]
        },
        "text": {
          "status": "additional",
          "div": "<div xmlns=\"http://www.w3.org/1999/xhtml\">Child's development assessed as Normal</div>"
        },
        "status": "final",
        "code": {
          "coding": [
            {
              "system": "http://snomed.info/sct",
              "code": "364674008",
              "display": "Child developmental detail"
            }
          ]
        },
        "subject": {
          "reference": "urn:uuid:43140538-3e2a-486b-8993-aab0e8d5c20a",
          "display": "Baby of Eve Bill"
        },
        "effectiveDateTime": "2018-12-27T16:13:03Z",
        "performer": [
          {
            "reference": "urn:uuid:b763b0ba-079e-4276-b527-7f1b30271243",
            "display": "Examiner"
          },
          {
            "reference": "urn:uuid:21b0b1aa-d525-4046-a0a2-df928df48d39",
            "display": "Organisation"
          }
        ],
        "valueCodeableConcept": {
          "coding": [
            {
              "system": "http://snomed.info/sct",
              "code": "443938003",
              "display": "Procedure carried out on subject"
            }
          ]
        },
        "interpretation": {
          "coding": [
            {
              "system": "http://snomed.info/sct",
              "code": "17621005",
              "display": "Normal"
            }
          ]
        },
        "comment": "Completed"
      }
    },
    {
      "fullUrl": "urn:uuid:929625a7-e26e-4661-8368-a593579bfad1",
      "resource": {
        "resourceType": "Observation",
        "meta": {
          "versionId": "1",
          "lastUpdated": "2019-12-11T14:36:03Z",
          "profile": [
            "http://hl7.org.au/fhir/ch/v1/StructureDefinition/ncdhc-observation-oral-health"
          ]
        },
        "text": {
          "status": "generated",
          "div": "<div xmlns=\"http://www.w3.org/1999/xhtml\"><p><b>Generated Narrative with Details</b></p><p><b>id</b>: 929625a7-e26e-4661-8368-a593579bfad1</p><p><b>meta</b>: </p><p><b>status</b>: final</p><p><b>code</b>: Oral Health <span style=\"background: LightGoldenRodYellow\">(Details : {SNOMED CT code '364111005' = 'Oral cavity observable)</span></p><p><b>subject</b>: <a href=\"urn:uuid:43140538-3e2a-486b-8993-aab0e8d5c20a\">urn:uuid:43140538-3e2a-486b-8993-aab0e8d5c20a</a></p><p><b>effective</b>: 2019-11-21</p><p><b>performer</b>: </p><ul><li><a href=\"urn:uuid:b763b0ba-079e-4276-b527-7f1b30271243\">Examiner</a></li><li><a href=\"urn:uuid:21b0b1aa-d525-4046-a0a2-df928df48d39\">Organisation</a></li></ul><p><b>value</b>: Procedure carried out on subject <span style=\"background: LightGoldenRodYellow\">(Details : {SNOMED CT code '443938003' = 'Procedure carried out on subject (situation)', given as 'Procedure carried out on subject'})</span></p><p><b>interpretation</b>: Normal <span style=\"background: LightGoldenRodYellow\">(Details : {SNOMED CT code '17621005' = 'Normal', given as 'Normal'})</span></p><p><b>comment</b>: comment12</p></div>"
        },
        "status": "final",
        "code": {
          "coding": [
            {
              "system": "http://snomed.info/sct",
              "code": "364111005"
            }
          ],
          "text": "Oral Health"
        },
        "subject": {
          "reference": "urn:uuid:43140538-3e2a-486b-8993-aab0e8d5c20a"
        },
        "effectiveDateTime": "2019-11-21",
        "performer": [
          {
            "reference": "urn:uuid:b763b0ba-079e-4276-b527-7f1b30271243",
            "display": "Examiner"
          },
          {
            "reference": "urn:uuid:21b0b1aa-d525-4046-a0a2-df928df48d39",
            "display": "Organisation"
          }
        ],
        "valueCodeableConcept": {
          "coding": [
            {
              "system": "http://snomed.info/sct",
              "code": "443938003",
              "display": "Procedure carried out on subject"
            }
          ]
        },
        "interpretation": {
          "coding": [
            {
              "system": "http://snomed.info/sct",
              "code": "17621005",
              "display": "Normal"
            }
          ],
          "text": "Normal"
        },
        "comment": "comment12"
      }
    },
    {
      "fullUrl": "urn:uuid:fb5f551f-4964-40fb-976e-abadc30d62ce",
      "resource": {
        "resourceType": "Observation",
        "meta": {
          "versionId": "1",
          "lastUpdated": "2019-12-11T14:36:03Z",
          "profile": [
            "http://hl7.org.au/fhir/ch/v1/StructureDefinition/ncdhc-observation-test-iron"
          ]
        },
        "text": {
          "status": "generated",
          "div": "<div xmlns=\"http://www.w3.org/1999/xhtml\"><p><b>Generated Narrative with Details</b></p><p><b>id</b>: fb5f551f-4964-40fb-976e-abadc30d62ce</p><p><b>meta</b>: </p><p><b>status</b>: final</p><p><b>code</b>: Iron Testing <span style=\"background: LightGoldenRodYellow\">(Details : {SNOMED CT code '42950004' = 'Iron measurement)</span></p><p><b>subject</b>: <a href=\"urn:uuid:43140538-3e2a-486b-8993-aab0e8d5c20a\">urn:uuid:43140538-3e2a-486b-8993-aab0e8d5c20a</a></p><p><b>effective</b>: 2019-11-21</p><p><b>performer</b>: </p><ul><li><a href=\"urn:uuid:b763b0ba-079e-4276-b527-7f1b30271243\">Examiner</a></li><li><a href=\"urn:uuid:21b0b1aa-d525-4046-a0a2-df928df48d39\">Organisation</a></li></ul><p><b>value</b>: No <span style=\"background: LightGoldenRodYellow\">(Details : {SNOMED CT code '416237000' = 'Procedure not done', given as 'Procedure not done'})</span></p><p><b>comment</b>: comment13</p><h3>Relateds</h3><table class=\"grid\"><tr><td>-</td><td><b>Target</b></td></tr><tr><td>*</td><td><a href=\"urn:uuid:3f3e0d50-72da-4dd2-8a54-7fb088f707c9\">urn:uuid:3f3e0d50-72da-4dd2-8a54-7fb088f707c9</a></td></tr></table></div>"
        },
        "status": "final",
        "code": {
          "coding": [
            {
              "system": "http://snomed.info/sct",
              "code": "42950004"
            }
          ],
          "text": "Iron Testing"
        },
        "subject": {
          "reference": "urn:uuid:43140538-3e2a-486b-8993-aab0e8d5c20a"
        },
        "effectiveDateTime": "2019-11-21",
        "performer": [
          {
            "reference": "urn:uuid:b763b0ba-079e-4276-b527-7f1b30271243",
            "display": "Examiner"
          },
          {
            "reference": "urn:uuid:21b0b1aa-d525-4046-a0a2-df928df48d39",
            "display": "Organisation"
          }
        ],
        "valueCodeableConcept": {
          "coding": [
            {
              "system": "http://snomed.info/sct",
              "code": "416237000",
              "display": "Procedure not done"
            }
          ],
          "text": "No"
        },
        "comment": "comment13",
        "related": [
          {
            "target": {
              "reference": "urn:uuid:3f3e0d50-72da-4dd2-8a54-9fb088f707c9"
            }
          }
        ]
      }
    },
    {
      "fullUrl": "urn:uuid:3f3e0d50-72da-4dd2-8a54-9fb088f707c9",
      "resource": {
        "resourceType": "Observation",
        "meta": {
          "versionId": "1",
          "lastUpdated": "2019-12-11T14:36:03Z",
          "profile": [
            "http://hl7.org.au/fhir/ch/v1/StructureDefinition/ncdhc-observation-iron-haemoglobin-level"
          ]
        },
        "text": {
          "status": "generated",
          "div": "<div xmlns=\"http://www.w3.org/1999/xhtml\"><p><b>Generated Narrative with Details</b></p><p><b>id</b>: ncdhc-observation-iron-haemoglobin-level</p><p><b>meta</b></p></div>"
        },
        "status": "final",
        "code": {
          "coding": [
            {
              "system": "http://snomed.info/sct",
              "code": "271026005",
              "display": "Haemoglobin level estimation"
            }
          ],
          "text": "Haemoglobin level estimation"
        },
        "subject": {
          "reference": "Patient/patient-baby-example",
          "display": "Baby of Eve Bill"
        },
        "effectiveDateTime": "2019-11-21",
        "performer": [
          {
            "reference": "urn:uuid:b763b0ba-079e-4276-b527-7f1b30271243",
            "display": "Examiner"
          },
          {
            "reference": "urn:uuid:21b0b1aa-d525-4046-a0a2-df928df48d39",
            "display": "Organisation"
          }
        ],
        "valueQuantity": {
          "value": 6,
          "unit": "ug/L",
          "system": "http://unitsofmeasure.org",
          "code": "ug/L"
        }
      }
    },
    {
      "fullUrl": "urn:uuid:313e0d50-72da-4dd2-8a54-7fb088f707c9",
      "resource": {
        "resourceType": "Observation",
        "meta": {
          "versionId": "1",
          "lastUpdated": "2019-12-11T14:36:03Z",
          "profile": [
            "http://hl7.org.au/fhir/ch/v1/StructureDefinition/ncdhc-observation-iron-haemoglobin-level"
          ]
        },
        "text": {
          "status": "generated",
          "div": "<div xmlns=\"http://www.w3.org/1999/xhtml\"><p><b>Generated Narrative with Details</b></p><p><b>id</b>: 313e0d50-72da-4dd2-8a54-7fb088f707c9</p><p><b>meta</b>: </p><p><b>status</b>: final</p><p><b>code</b>: Haemoglobin level estimation <span style=\"background: LightGoldenRodYellow\">(Details : {SNOMED CT code '271026005' = 'Haemoglobin level estimation', given as 'Haemoglobin level estimation'})</span></p><p><b>effective</b>: 2019-11-21</p><p><b>performer</b>: </p><ul><li><a href=\"urn:uuid:b763b0ba-079e-4276-b527-7f1b30271243\">Examiner</a></li><li><a href=\"urn:uuid:21b0b1aa-d525-4046-a0a2-df928df48d39\">Organisation</a></li></ul><p><b>value</b>: 13 ug/L<span style=\"background: LightGoldenRodYellow\"> (Details: UCUM code ug/L = 'ug/L')</span></p></div>"
        },
        "status": "final",
        "code": {
          "coding": [
            {
              "system": "http://snomed.info/sct",
              "code": "271026005",
              "display": "Haemoglobin level estimation"
            }
          ],
          "text": "Haemoglobin level estimation"
        },
        "subject": {
          "reference": "urn:uuid:43140538-3e2a-486b-8993-aab0e8d5c20a"
        },
        "effectiveDateTime": "2019-11-21",
        "performer": [
          {
            "reference": "urn:uuid:b763b0ba-079e-4276-b527-7f1b30271243",
            "display": "Examiner"
          },
          {
            "reference": "urn:uuid:21b0b1aa-d525-4046-a0a2-df928df48d39",
            "display": "Organisation"
          }
        ],
        "valueQuantity": {
          "value": 13,
          "unit": "ug/L",
          "system": "http://unitsofmeasure.org",
          "code": "ug/L"
        }
      }
    },
    {
      "fullUrl": "urn:uuid:eb85bbef-9cbb-4611-a942-db39385fe661",
      "resource": {
        "resourceType": "Observation",
        "meta": {
          "versionId": "1",
          "lastUpdated": "2019-12-11T14:36:03Z",
          "profile": [
            "http://hl7.org.au/fhir/ch/v1/StructureDefinition/ncdhc-observation-deworming"
          ]
        },
        "text": {
          "status": "generated",
          "div": "<div xmlns=\"http://www.w3.org/1999/xhtml\"><p><b>Generated Narrative with Details</b></p><p><b>id</b>: eb85bbef-9cbb-4611-a942-db39385fe661</p><p><b>meta</b>: </p><p><b>status</b>: final</p><p><b>code</b>: Deworming <span style=\"background: LightGoldenRodYellow\">(Details : {SNOMED CT code '14369007' = 'Deworming)</span></p><p><b>subject</b>: <a href=\"urn:uuid:43140538-3e2a-486b-8993-aab0e8d5c20a\">urn:uuid:43140538-3e2a-486b-8993-aab0e8d5c20a</a></p><p><b>effective</b>: 2019-11-21</p><p><b>performer</b>: </p><ul><li><a href=\"urn:uuid:b763b0ba-079e-4276-b527-7f1b30271243\">Examiner</a></li><li><a href=\"urn:uuid:21b0b1aa-d525-4046-a0a2-df928df48d39\">Organisation</a></li></ul><p><b>value</b>: Yes <span style=\"background: LightGoldenRodYellow\">(Details : {SNOMED CT code '443938003' = 'Procedure carried out on subject (situation)', given as 'Procedure carried out on subject'})</span></p><p><b>comment</b>: comment14</p></div>"
        },
        "status": "final",
        "code": {
          "coding": [
            {
              "system": "http://snomed.info/sct",
              "code": "14369007"
            }
          ],
          "text": "Deworming"
        },
        "subject": {
          "reference": "urn:uuid:43140538-3e2a-486b-8993-aab0e8d5c20a"
        },
        "effectiveDateTime": "2019-11-21",
        "performer": [
          {
            "reference": "urn:uuid:b763b0ba-079e-4276-b527-7f1b30271243",
            "display": "Examiner"
          },
          {
            "reference": "urn:uuid:21b0b1aa-d525-4046-a0a2-df928df48d39",
            "display": "Organisation"
          }
        ],
        "valueCodeableConcept": {
          "coding": [
            {
              "system": "http://snomed.info/sct",
              "code": "443938003",
              "display": "Procedure carried out on subject"
            }
          ],
          "text": "Yes"
        },
        "comment": "comment14"
      }
    },
    {
      "fullUrl": "urn:uuid:18eb3151-1d84-4f8e-9e2c-3fa984020324",
      "resource": {
        "resourceType": "Observation",
        "meta": {
          "versionId": "1",
          "lastUpdated": "2019-12-11T14:36:03Z",
          "profile": [
            "http://hl7.org.au/fhir/ch/v1/StructureDefinition/ncdhc-observation-ageaprImmcomp"
          ]
        },
        "text": {
          "status": "generated",
          "div": "<div xmlns=\"http://www.w3.org/1999/xhtml\"><p><b>Generated Narrative with Details</b></p><p><b>id</b>: 18eb3151-1d84-4f8e-9e2c-3fa984020324</p><p><b>meta</b>: </p><p><b>status</b>: final</p><p><b>code</b>: Immunisation Complete <span style=\"background: LightGoldenRodYellow\">(Details : {SNOMED CT code '408864009' = 'Vaccination status (observable entity)', given as 'Vaccination status (observable entity)'})</span></p><p><b>subject</b>: <a href=\"urn:uuid:43140538-3e2a-486b-8993-aab0e8d5c20a\">urn:uuid:43140538-3e2a-486b-8993-aab0e8d5c20a</a></p><p><b>effective</b>: 2019-11-21</p><p><b>performer</b>: </p><ul><li><a href=\"urn:uuid:b763b0ba-079e-4276-b527-7f1b30271243\">Examiner</a></li><li><a href=\"urn:uuid:21b0b1aa-d525-4046-a0a2-df928df48d39\">Organisation</a></li></ul><p><b>value</b>: Yes <span style=\"background: LightGoldenRodYellow\">(Details : {SNOMED CT code '443938003' = 'Procedure carried out on subject (situation)', given as 'Procedure carried out on subject'})</span></p></div>"
        },
        "status": "final",
        "code": {
          "coding": [
            {
              "system": "http://snomed.info/sct",
              "code": "408864009",
              "display": "Vaccination status"
            }
          ],
          "text": "Immunisation Complete"
        },
        "subject": {
          "reference": "urn:uuid:43140538-3e2a-486b-8993-aab0e8d5c20a"
        },
        "effectiveDateTime": "2019-11-21",
        "performer": [
          {
            "reference": "urn:uuid:b763b0ba-079e-4276-b527-7f1b30271243",
            "display": "Examiner"
          },
          {
            "reference": "urn:uuid:21b0b1aa-d525-4046-a0a2-df928df48d39",
            "display": "Organisation"
          }
        ],
        "valueCodeableConcept": {
          "coding": [
            {
              "system": "http://snomed.info/sct",
              "code": "171258008",
              "display": "Up-to-date with vaccinations"
            }
          ],
          "text": "Yes"
        }
      }
    },
    {
      "fullUrl": "urn:uuid:9sfe2ae1-eeda-4938-80fc-91c399d4cfbe",
      "resource": {
        "resourceType": "Observation",
        "meta": {
          "versionId": "1",
          "lastUpdated": "2018-12-27T16:13:03Z",
          "profile": [
            "http://hl7.org.au/fhir/ch/v1/StructureDefinition/ncdhc-observation-testes-fully-descended"
          ]
        },
        "text": {
          "status": "additional",
          "div": "<div xmlns=\"http://www.w3.org/1999/xhtml\">Both testes assessed normal.</div>"
        },
        "status": "final",
        "code": {
          "coding": [
            {
              "system": "http://snomed.info/sct",
              "code": "249237009",
              "display": "Position of testicle"
            }
          ]
        },
        "subject": {
          "reference": "urn:uuid:43140538-3e2a-486b-8993-aab0e8d5c20a"
        },
        "effectiveDateTime": "2018-12-27T16:13:03Z",
        "performer": [
          {
            "reference": "urn:uuid:b763b0ba-079e-4276-b527-7f1b30271243",
            "display": "Examiner"
          },
          {
            "reference": "urn:uuid:21b0b1aa-d525-4046-a0a2-df928df48d39",
            "display": "Organisation"
          }
        ],
        "valueCodeableConcept": {
          "coding": [
            {
              "system": "http://snomed.info/sct",
              "code": "443938003",
              "display": "Procedure carried out on subject"
            }
          ]
        },
        "comment": "Completed",
        "component": [
          {
            "code": {
              "coding": [
                {
                  "system": "http://snomed.info/sct",
                  "code": "15598003",
                  "display": "Right testis"
                }
              ]
            },
            "interpretation": {
              "coding": [
                {
                  "system": "http://snomed.info/sct",
                  "code": "17621005",
                  "display": "Normal"
                }
              ]
            }
          },
          {
            "code": {
              "coding": [
                {
                  "system": "http://snomed.info/sct",
                  "code": "63239009",
                  "display": "Left testis"
                }
              ]
            },
            "interpretation": {
              "coding": [
                {
                  "system": "http://snomed.info/sct",
                  "code": "17621005",
                  "display": "Normal"
                }
              ]
            }
          }
        ]
      }
    }
  ]
}